#timestamp [ns],w_RS_S_x [rad s^-1],w_RS_S_y [rad s^-1],w_RS_S_z [rad s^-1],a_RS_S_x [m s^-2],a_RS_S_y [m s^-2],a_RS_S_z [m s^-2]
1717166115322634071,0.0,0.0,0.0,3.758565431505076e-37,1.7632416383373084e-37,9.8100004196167
1717166115378408663,-2.7330315788276494e-06,-1.8087047237713705e-06,4.711613321717323e-10,-1278.97314453125,-599.9999389648438,-1035.100341796875
1717166115395875040,-1.723450395729742e-06,-5.605017463494733e-07,1.312878694648134e-10,-0.00015624999650754035,-7.812499825377017e-05,13.744062423706055
1717166115484052805,4.803144975085161e-07,-1.4989235808116064e-07,-1.3362100315106318e-10,0.0,7.812499825377017e-05,12.409844398498535
1717166115497509238,-3.8935503710035846e-08,-4.4738854398929107e-07,-5.7236111683511837e-11,0.0,0.0,11.518516540527344
1717166115543483271,1.5434920896950644e-07,-3.359247955359024e-07,-1.0976275444107841e-10,0.0,0.0,10.9291410446167
1717166115594458175,2.680652357867075e-07,-2.714914728585427e-07,-1.4638959489055026e-10,0.0,0.0,10.54117202758789
1717166115638974990,-4.820082040168927e-07,1.633045627613683e-07,-1.131170712653784e-10,0.0,0.0,10.286328315734863
1717166115688889479,5.283844188852527e-07,-1.7814882369293628e-07,-5.3082017947847504e-11,0.0,0.0,10.119375228881836
1717166115749110663,6.684157369818422e-07,-1.4518062130264298e-07,-4.853747265221031e-11,0.0,0.0,10.010625839233398
1717166115796219623,8.216501328206505e-07,-1.1856136694632369e-07,2.3045287900202993e-11,0.0,0.0,9.93960952758789
1717166115839258842,-7.796365220080759e-10,-4.457485829334473e-07,-1.063332755180113e-10,0.0,0.0,9.893750190734863
1717166115897187721,9.075009188563854e-07,-4.7881417941653126e-08,-4.8539505748124157e-11,0.0,0.0,9.863750457763672
1717166115950440754,-5.595233005806222e-07,-1.1772709029855832e-08,-1.5104251183117867e-10,0.0,7.812499825377017e-05,9.844687461853027
1717166115988717902,0.0,0.0,0.0,0.0,-7.812499825377017e-05,9.87109375
1717166116040302865,0.0,0.0,0.0,0.0,0.0,9.8100004196167
1717166116096376718,0.0,0.0,0.0,0.0,0.0,9.8100004196167
1717166116138521529,0.0,0.0,0.0,0.0,0.0,9.8100004196167
1717166116202778237,0.0,0.0,0.0,0.0,0.0,9.8100004196167
1717166116253719992,0.0,0.0,0.0,0.0,0.0,9.8100004196167
1717166116301716804,0.0,0.0,0.0,0.0,0.0,9.8100004196167
1717166116355705165,0.0,0.0,0.0,0.0,0.0,9.8100004196167
1717166116404574047,0.0,0.0,0.0,0.0,0.0,9.8100004196167
1717166116438965831,0.0,0.0,0.0,0.0,0.0,9.8100004196167
1717166116494948081,0.0,0.0,0.0,0.0,0.0,9.8100004196167
1717166116548695970,0.0,0.0,0.0,0.0,0.0,9.8100004196167
1717166116599820826,0.0,0.0,0.0,0.0,0.0,9.8100004196167
1717166116653806286,0.0,0.0,0.0,0.0,0.0,9.8100004196167
1717166116694016441,0.0,0.0,0.0,0.0,0.0,9.8100004196167
1717166116739145257,0.0,0.0,0.0,0.0,0.0,9.8100004196167
1717166116791413323,0.0,0.0,0.0,0.0,0.0,9.8100004196167
1717166116850829701,0.0,0.0,0.0,0.0,0.0,9.8100004196167
1717166116896286291,0.0,0.0,0.0,0.0,0.0,9.8100004196167
1717166116947434103,0.0,0.0,0.0,0.0,0.0,9.8100004196167
1717166116998172887,0.0,0.0,0.0,0.0,0.0,9.8100004196167
1717166117039890182,0.0,0.0,0.0,0.0,0.0,9.8100004196167
1717166117091414904,0.0,0.0,0.0,0.0,0.0,9.8100004196167
1717166117146052950,0.0,0.0,0.0,0.0,0.0,9.8100004196167
1717166117201848294,0.0,0.0,0.0,0.0,0.0,9.8100004196167
1717166117249442539,0.0,0.0,0.0,0.0,0.0,9.8100004196167
1717166117305156140,0.0,0.0,0.0,0.0,0.0,9.8100004196167
1717166117353492752,0.0,0.0,0.0,0.0,0.0,9.8100004196167
1717166117388837736,0.0,0.0,0.0,0.0,0.0,9.8100004196167
1717166117451682181,0.0,0.0,0.0,0.0,0.0,9.8100004196167
1717166117501241723,0.0,0.0,0.0,0.0,0.0,9.8100004196167
1717166117550335554,0.0,0.0,0.0,0.0,0.0,9.8100004196167
1717166117589146085,0.0,0.0,0.0,0.0,0.0,9.8100004196167
1717166117639279304,0.0,0.0,0.0,0.0,0.0,9.8100004196167
1717166117688623121,0.0,0.0,0.0,0.0,0.0,9.8100004196167
1717166117738948403,0.0,0.0,0.0,0.0,0.0,9.8100004196167
1717166117793504304,0.0,0.0,0.0,0.0,0.0,9.8100004196167
1717166117856085300,0.0,0.0,0.0,0.0,0.0,9.8100004196167
1717166117906099248,0.0,0.0,0.0,0.0,0.0,9.8100004196167
1717166117943409469,0.0,0.0,0.0,0.0,0.0,9.8100004196167
1717166117988804232,0.0,0.0,0.0,0.0,0.0,9.8100004196167
1717166118038500670,0.0,0.0,0.0,0.0,0.0,9.8100004196167
1717166118101825756,0.0,0.0,0.0,0.0,0.0,9.8100004196167
1717166118152269109,0.0,0.0,0.0,0.0,0.0,9.8100004196167
1717166118201329049,0.0,0.0,0.0,0.0,0.0,9.8100004196167
1717166118243018081,0.0,0.0,0.0,0.0,0.0,9.8100004196167
1717166118291479155,0.0,0.0,0.0,0.0,0.0,9.8100004196167
1717166118346803040,0.0,0.0,0.0,0.0,0.0,9.8100004196167
1717166118389971440,0.0,0.0,0.0,0.0,0.0,9.8100004196167
1717166118440008863,0.0,0.0,0.0,0.0,0.0,9.8100004196167
1717166118497022250,0.0,0.0,0.0,0.0,0.0,9.8100004196167
1717166118545442212,0.0,0.0,0.0,0.0,0.0,9.8100004196167
1717166118595513667,0.0,0.0,0.0,0.0,0.0,9.8100004196167
1717166118651203228,0.0,0.0,0.0,0.0,0.0,9.8100004196167
1717166118703637123,0.0,0.0,0.0,0.0,0.0,9.8100004196167
1717166118741035206,0.0,0.0,0.0,0.0,0.0,9.8100004196167
1717166118791744674,0.0,0.0,0.0,0.0,0.0,9.8100004196167
1717166118843870074,0.0,0.0,0.0,0.0,0.0,9.8100004196167
1717166118895518162,0.0,0.0,0.0,0.0,0.0,9.8100004196167
1717166118946931267,0.0,0.0,0.0,0.0,0.0,9.8100004196167
1717166118988514229,0.0,0.0,0.0,0.0,0.0,9.8100004196167
1717166119045493224,0.0,0.0,0.0,0.0,0.0,9.8100004196167
1717166119090004719,0.0,0.0,0.0,0.0,0.0,9.8100004196167
1717166119151310803,0.0,0.0,0.0,0.0,0.0,9.8100004196167
1717166119203025137,0.0,0.0,0.0,0.0,0.0,9.8100004196167
1717166119245615433,0.0,0.0,0.0,0.0,0.0,9.8100004196167
1717166119296579844,0.0,0.0,0.0,0.0,0.0,9.8100004196167
1717166119345485172,0.0,0.0,0.0,0.0,0.0,9.8100004196167
1717166119392886530,0.0,0.0,0.0,0.0,0.0,9.8100004196167
1717166119447004447,0.0,0.0,0.0,0.0,0.0,9.8100004196167
1717166119495046522,0.0,0.0,0.0,0.0,0.0,9.8100004196167
1717166119546701339,0.0,0.0,0.0,0.0,0.0,9.8100004196167
1717166119592411341,0.0,0.0,0.0,0.0,0.0,9.8100004196167
1717166119644368257,0.0,0.0,0.0,0.0,0.0,9.8100004196167
1717166119696066748,0.0,0.0,0.0,0.0,0.0,9.8100004196167
1717166119744879428,0.0,0.0,0.0,0.0,0.0,9.8100004196167
1717166119793603985,0.0,0.0,0.0,0.0,0.0,9.8100004196167
1717166119851006074,0.0,0.0,0.0,0.0,0.0,9.8100004196167
1717166119889630049,0.0,0.0,0.0,0.0,0.0,9.8100004196167
1717166119938967597,0.0,0.0,0.0,0.0,0.0,9.8100004196167
1717166119989308421,0.0,0.0,0.0,0.0,0.0,9.8100004196167
1717166120044691762,0.0,0.0,0.0,0.0,0.0,9.8100004196167
1717166120094220948,0.0,0.0,0.0,0.0,0.0,9.8100004196167
1717166120146464543,0.0,0.0,0.0,0.0,0.0,9.8100004196167
1717166120196181993,1.394108721797238e-06,1.883929279244967e-08,8.475747881320217e-12,0.0,0.0,9.554922103881836
1717166120240569951,-1.7181333760163398e-06,2.27289724819002e-08,1.5135925846010423e-10,0.0,-7.812499825377017e-05,9.982421875
1717166120289667336,3.8465586271740904e-07,3.751744372948451e-07,5.4998408605122506e-11,0.0,7.812499825377017e-05,9.890469551086426
1717166120339707391,-1.1270713002886623e-06,-3.422040890654898e-07,-1.0115053239445615e-10,0.0,0.0,9.842812538146973
1717166120394276771,1.287480358769244e-06,-3.1745424067253225e-09,1.0159845187374117e-10,0.0,7.812499825377017e-05,9.819063186645508
1717166120447395051,-3.5415030197327724e-07,-8.66841975977195e-09,4.5796449965607167e-11,0.0,-7.812499825377017e-05,9.808281898498535
1717166120500940306,1.0905014846684935e-07,3.6653707979894534e-07,1.3360756945246521e-10,0.0,-7.812499825377017e-05,9.8041410446167
1717166120553089504,9.81721541393199e-07,1.1773802377490483e-08,-8.42233366382672e-11,0.0,7.812499825377017e-05,9.803438186645508
1717166120601811602,-1.498174029279653e-08,-1.0169501685197702e-08,-8.589760153165926e-11,0.0,0.0,9.790547370910645
1717166120643510047,9.256228281628864e-07,3.131631274300162e-07,-2.3720744118937986e-11,0.0,0.0,9.815468788146973
1717166120696569148,-4.0510727217224485e-08,-8.081430991069283e-08,3.72707073537093e-11,0.0,7.812499825377017e-05,9.809765815734863
1717166120747010498,-1.735616876885615e-07,-1.5695346178290492e-07,5.6051649433008777e-11,0.0,-7.812499825377017e-05,9.808438301086426
1717166120795305883,-2.369537384083742e-07,-2.3783894675943884e-07,1.1727729898325379e-11,0.0,-7.812499825377017e-05,9.8080472946167
1717166120842513008,-1.5321055002459616e-07,-2.6288975618626864e-07,-2.145174836376551e-11,0.0,7.812499825377017e-05,9.80820369720459
1717166120889172133,-6.228444959788249e-08,-2.9271711809997214e-07,-5.7964764932361135e-11,0.0,0.0,9.808438301086426
1717166120944648562,8.647091362945503e-07,4.863163027835071e-08,-1.626454873560057e-11,0.0,0.0,9.80875015258789
1717166121001196053,4.814828713506358e-08,1.0203404343656075e-08,-1.4383389227920484e-12,0.0,0.0,9.807890892028809
1717166121054805692,-6.63659818656015e-07,-3.3275244959440897e-07,6.462558266306928e-11,0.0,0.0,9.8100004196167
1717166121091297364,3.880864483107871e-07,3.4572167351143435e-08,-7.786499223172427e-11,0.0,0.0,9.8100004196167
1717166121144744956,-3.6126547797721287e-07,3.7438672961798147e-07,5.827569676819522e-11,0.0,0.0,9.809922218322754
1717166121195392921,-2.577736211151205e-07,-3.5165746226084593e-07,-2.21470411454483e-11,0.0,0.0,9.809844017028809
1717166121245526146,-2.611920990602812e-07,3.493049121061631e-07,-2.0463866712283618e-11,0.0,0.0,9.809687614440918
1717166121293413803,-1.184458326974891e-07,3.5868598047272826e-07,1.0017002505247063e-10,0.0,0.0,9.8100004196167
1717166121339055732,8.502343007421587e-07,1.6044721107277837e-09,-5.757805690564943e-11,0.0,0.0,9.809453964233398
1717166121392940913,0.0,0.0,0.0,0.0,0.0,9.8100004196167
1717166121442123322,9.121216066887428e-07,-3.217963069346297e-07,-2.274685995118375e-11,0.0,0.0,9.810546875
1717166121499626486,-1.5493684557554843e-08,8.159932463058794e-08,-3.212258931073464e-11,0.0,0.0,9.809453964233398
1717166121553770201,9.373701459480799e-07,-1.9538666151674988e-07,-1.4210504994949247e-10,0.0,0.0,9.8100004196167
1717166121602488080,-9.002451406558976e-07,-1.405068275062149e-07,1.1266325372627506e-10,0.0,0.0,9.8100004196167
1717166121640388289,2.2745185290773406e-08,-4.489255616135779e-07,-1.9456913510906837e-11,0.0,0.0,9.8100004196167
1717166121693620052,1.5435389855156245e-08,3.084517459228664e-07,6.426402465731229e-11,0.0,0.0,9.810391426086426
1717166121747216532,8.889493301467155e-07,1.4094297284827917e-08,1.5556375632108654e-11,0.0,0.0,9.809609413146973
1717166121795607863,2.332216553213584e-08,-3.186211756656121e-07,-1.5505029204998522e-10,0.0,0.0,9.8100004196167
1717166121845640715,5.0038014620668037e-08,-1.5697320110419355e-09,-5.111525352291535e-13,0.0,0.0,9.8100004196167
1717166121894028045,1.1994926296665653e-07,-3.139573490074099e-09,-3.7504038503249904e-13,0.0,0.0,9.8100004196167
1717166121946805099,1.0189827435169718e-06,3.4377634960947034e-07,-1.7436781185597994e-11,0.0,0.0,9.8100004196167
1717166122011568768,-2.7243705957857856e-08,-5.33405639657758e-08,1.8085689196256638e-11,0.0,0.0,9.8100004196167
1717166122044778490,6.788192195017473e-07,-5.266296057016007e-07,-1.129160445700883e-10,0.0,0.0,9.8100004196167
1717166122095139879,-9.064317509910325e-07,9.337687600918798e-08,7.173447946762224e-11,0.0,0.0,9.8100004196167
1717166122143754779,-1.066876848199172e-06,5.2524033122836045e-08,2.6853273077387385e-11,0.0,0.0,9.8100004196167
1717166122193722579,-1.77796906086769e-08,4.03397109494108e-07,2.530969531178151e-11,0.0,0.0,9.8100004196167
1717166122243737283,6.776416938691909e-08,7.848863781134696e-10,-2.7839794271983243e-12,0.0,0.0,9.8100004196167
1717166122289645938,-6.087920496611332e-07,3.594733186673693e-07,5.7383015006351457e-11,0.0,0.0,9.8100004196167
1717166122341629919,4.5802374870618223e-07,8.60074145236922e-09,-3.891026389979402e-11,0.0,0.0,9.8100004196167
1717166122400046700,6.279783519858029e-07,1.412914762966011e-08,-1.250592129853345e-10,0.0,0.0,9.8100004196167
1717166122451063551,8.018541279852798e-07,1.9623806579716074e-08,-1.2416918881985595e-10,0.0,0.0,9.8100004196167
1717166122500576624,-3.7142165183468023e-06,0.00032788567477837205,-0.00019489320402499288,0.010338366962969303,0.0006219704519025981,9.810859680175781
1717166122549480255,1.5342396864070906e-06,-0.009625461883842945,-5.5902887652337085e-06,9.277220726013184,-0.0006761025870218873,9.75031566619873
1717166122588890785,3.8854176409586216e-07,-0.008012259379029274,-4.60530236523482e-06,11.54869270324707,0.00019063844229094684,9.795533180236816
1717166122641113923,-9.670801404126905e-08,-0.004671663977205753,-4.019429070467595e-06,8.85554027557373,-0.00016494830197189003,9.820411682128906
1717166122694826027,2.409190642538306e-07,-0.0019291173666715622,-3.593992460082518e-06,6.998776435852051,6.229173595784232e-05,9.821711540222168
1717166122745838824,9.722027698444435e-07,-0.00018195393204223365,-3.3439521303080255e-06,5.780047416687012,-5.6411583500448614e-05,9.816346168518066
1717166122789104625,5.7635144656842385e-08,0.0007511649746447802,-3.193745214957744e-06,5.015267372131348,1.8379079847363755e-05,9.811612129211426
1717166122838829069,1.639232777961297e-06,0.0011341656791046262,-3.1552619930153014e-06,4.548661708831787,1.645971497055143e-05,9.808148384094238
1717166122893199886,-5.790306545350177e-07,0.0011851416202262044,-3.1956328712112736e-06,4.288857460021973,-2.3771559426677413e-05,9.806066513061523
1717166122945820256,1.0571104525070041e-07,0.0010594044579192996,-3.317506298117223e-06,4.164248466491699,1.7064712665160187e-05,9.804725646972656
1717166122996919168,1.0272598274241318e-06,0.0008541023707948625,-3.478548705970752e-06,4.128481864929199,-0.00013936612231191248,9.804329872131348
1717166123042006619,1.2277281769002002e-07,0.0006354321958497167,-3.67565644410206e-06,4.147820472717285,1.6937914551817812e-05,9.804222106933594
1717166123096995758,-5.346285547602747e-07,0.0004455474845599383,-3.868700332532171e-06,4.184136867523193,5.824410982313566e-05,9.804523468017578
1717166123149568183,-5.364337312130374e-07,0.00029631692450493574,-4.075456217833562e-06,4.218968391418457,-5.865465209353715e-05,9.804560661315918
1717166123202038411,1.0096071036969079e-06,0.00018580551841296256,-4.297331543057226e-06,4.2497992515563965,0.00013928998669143766,9.805045127868652
1717166123244023813,9.5281507128675e-07,0.00010547881538514048,-4.499404894886538e-06,4.276296615600586,-0.0002512524661142379,9.805204391479492
1717166123294381297,2.759881390090868e-08,0.00027533070533536375,-4.400022589834407e-06,4.201993465423584,6.0723676142515615e-05,9.806328773498535
1717166123348892821,1.6541526974833687e-06,0.0011140392161905766,-3.357617515575839e-06,3.4769248962402344,-1.9729433915927075e-05,9.81083869934082
1717166123389090494,1.906949194108165e-07,0.0023268694058060646,-1.6489566405653022e-06,2.0111348628997803,9.939963092620019e-06,9.815986633300781
1717166123439461288,-2.9190226769060246e-07,0.0031586894765496254,-2.6116020990230027e-07,0.5682960152626038,7.669192427783855e-07,9.816410064697266
1717166123494283281,5.939877496530244e-07,0.00344756618142128,6.676929160676082e-07,-0.434773713350296,-5.49550941286725e-06,9.81335163116455
1717166123543803631,-7.325903652599663e-07,0.0033274334855377674,1.2560253708215896e-06,-1.0772205591201782,-9.839070116868243e-06,9.81037425994873
1717166123596332570,-4.5134743231756147e-07,0.0029778892640024424,1.6176384178834269e-06,-1.4790574312210083,-1.2151194823672995e-05,9.808331489562988
1717166123651814155,6.040510811544664e-07,0.002531749429181218,1.8170136399930925e-06,-1.723497748374939,-9.170347766485065e-05,9.807209014892578
1717166123702526533,-7.909131483074816e-08,0.00207380298525095,1.917794179462362e-06,-1.8649026155471802,6.460502481786534e-05,9.806853294372559
1717166123739514619,-5.527525672732736e-07,0.0016494429437443614,1.953955234057503e-06,-1.9420300722122192,-1.3903615581511986e-05,9.806753158569336
1717166123795387624,2.5345769927298534e-07,0.0012782103149220347,1.949191755556967e-06,-1.9742769002914429,-9.23615662031807e-05,9.806923866271973
1717166123846861848,3.942578246096673e-07,0.0009659368661232293,1.907508249132661e-06,-1.9788618087768555,6.393367948476225e-05,9.807208061218262
1717166123895345951,-1.31586006091311e-07,0.0007103107054717839,1.8554358121036785e-06,-1.9654985666275024,-1.3940134522272274e-05,9.80760383605957
1717166123940519779,-6.931597908987897e-07,0.0005009238375350833,1.789438329069526e-06,-1.9376556873321533,0.00010440497862873599,9.807868957519531
1717166123990036912,-8.493215091220918e-07,0.0003288787556812167,1.7167690202768426e-06,-1.8953437805175781,6.558684981428087e-05,9.808079719543457
1717166124047605025,3.9946915109112524e-08,0.00019682507263496518,1.6451562032671063e-06,-1.8473339080810547,-9.016147669171914e-05,9.808310508728027
1717166124094969040,3.4304974860788207e-08,9.717576904222369e-05,1.5732265410406399e-06,-1.8011467456817627,6.639247294515371e-05,9.808706283569336
1717166124144531172,-9.480494327362976e-07,2.414974369457923e-05,1.5002452755652484e-06,-1.7583551406860352,-5.0611579354153946e-05,9.808640480041504
1717166124190108890,-1.069490849658905e-06,-2.8866130378446542e-05,1.442518282601668e-06,-1.7136677503585815,2.775134998955764e-05,9.80904769897461
1717166124239352397,-2.4150816102519457e-07,-6.661532097496092e-05,1.3770049918093719e-06,-1.6748864650726318,-5.0226230086991563e-05,9.809066772460938
1717166124302317533,3.675836239835917e-07,-9.414098894922063e-05,1.3167473298381083e-06,-1.6320322751998901,2.9066035494906828e-05,9.809246063232422
1717166124353432838,1.1748738870664965e-06,-0.00011265726789133623,1.2629365073735244e-06,-1.5941673517227173,-8.800238720141351e-05,9.809268951416016
1717166124405039815,-4.6100981876406877e-07,-0.00012571518891490996,1.2152942190368776e-06,-1.5556724071502686,6.832616782048717e-05,9.809370040893555
1717166124440871510,-1.3919433285991545e-06,-0.00013430927356239408,1.1604697647271678e-06,-1.519979476928711,-4.8821890231920406e-05,9.809314727783203
1717166124492775836,2.0341191486750176e-07,-0.00013935839524492621,1.1128755659228773e-06,-1.4824116230010986,2.9463699320331216e-05,9.809494018554688
1717166124545803206,-4.339972576872242e-07,-0.00014227426436264068,1.0675441899365978e-06,-1.4470312595367432,-9.280270205636043e-06,9.809516906738281
1717166124596930144,1.17291472179204e-06,-0.00014374201418831944,1.0248592161588022e-06,-1.4132132530212402,-4.812979750568047e-05,9.809537887573242
1717166124645447275,-3.563265806860727e-07,-0.0001440213090972975,9.818785429160926e-07,-1.3797026872634888,0.00022529340640176088,9.809558868408203
1717166124688784296,3.1846883530306513e-07,-0.00014306913362815976,9.391317803419952e-07,-1.3471347093582153,-4.7980949602788314e-05,9.809500694274902
1717166124742985412,3.408997315546003e-07,-0.0001414686266798526,9.027730243360566e-07,-1.314249038696289,-4.791560786543414e-05,9.809678077697754
1717166124793610158,3.842918374630244e-07,-0.00013971714361105114,8.627587817500171e-07,-1.2844936847686768,3.1365507311420515e-05,9.809617042541504
1717166124852988003,-4.1326799760099675e-07,-3.912407555617392e-05,9.084700991479622e-07,-1.376665711402893,-8.16617739474168e-06,9.810295104980469
1717166124903109058,2.146390016832811e-07,-0.00011088777682743967,8.07281423931272e-07,-1.296623706817627,3.124107388430275e-05,9.809309005737305
1717166124939694769,-4.868122118750762e-07,-0.00019190400780644268,7.158894277381478e-07,-1.1765400171279907,-4.6201792429201305e-05,9.809041976928711
1717166124993008126,2.770100593352254e-07,-0.0002614910190459341,6.574952635673981e-07,-1.0683001279830933,-6.9611810431524646e-06,9.809240341186523
1717166125046629673,2.1879984490880133e-09,-0.00031384511385113,4.529537420694396e-07,-0.9565913081169128,-6.4714868130977266e-06,9.809441566467285
1717166125097775156,8.466283816233044e-07,-0.00037767612957395613,1.0066249842566322e-06,-0.8395439386367798,3.3257321774726734e-05,9.809486389160156
1717166125146116044,-9.930371334121446e-07,-0.00034181069349870086,1.4712956897255935e-07,-0.7465538382530212,-4.476306276046671e-05,9.809600830078125
1717166125194751339,-1.2015446770874405e-07,-0.00041474439785815775,3.1456005444852053e-07,-0.6507355570793152,-5.20406956638908e-06,9.80979061126709
1717166125239100847,-1.235144679867517e-07,-0.0003550648398231715,4.019358073037438e-07,-0.5739901661872864,3.402206493774429e-05,9.809895515441895
1717166125292084994,-9.459217409357734e-08,-0.000427586113801226,1.5984124956958112e-07,-0.4587916135787964,-4.351252573542297e-05,9.809847831726074
1717166125346135505,7.640045964762976e-07,-0.00036302668740972877,2.7941740654569003e-07,-0.38954100012779236,-3.921982170140836e-06,9.809944152832031
1717166125403620342,7.049171699691215e-07,-0.00044102052925154567,3.3029504464821e-08,-0.2693372070789337,3.560712139005773e-05,9.80988883972168
1717166125449567457,-2.1529851679247258e-08,-0.000377177755581215,1.6077450482043787e-07,-0.19257616996765137,-4.2229807149851695e-05,9.81005859375
1717166125489506720,5.417495572146436e-07,-0.00044746900675818324,-9.255649757733408e-08,-0.07205987721681595,-2.628196170917363e-06,9.809760093688965
1717166125540579454,-1.343497473271782e-07,-0.0003189650014974177,6.846271816129956e-08,-0.0468822717666626,3.654495958471671e-05,9.810466766357422
1717166125598643845,-1.0805194960994413e-06,-1.338604675993338e-07,2.5486710342192964e-07,-0.2480800747871399,-4.259893830749206e-05,9.811704635620117
1717166125646340645,5.600458621302096e-07,0.00023773341672495008,3.704252549141529e-07,-0.5300387144088745,-4.842534963245271e-06,9.811760902404785
1717166125689332618,-2.6862821300710493e-07,0.0003531618567649275,4.3306138763909985e-07,-0.697382926940918,3.34074065904133e-05,9.811036109924316
1717166125740343870,7.147256724238105e-07,0.00037803928717039526,4.67919733182498e-07,-0.7922532558441162,-4.4891399738844484e-05,9.810232162475586
1717166125794703369,-1.1458326554247833e-07,0.0003489987866487354,4.783033773492207e-07,-0.8430558443069458,-4.516858825809322e-05,9.80989933013916
1717166125847280445,8.586686703893065e-07,0.0002955894742626697,4.805955882147828e-07,-0.8694625496864319,3.2961321267066523e-05,9.809491157531738
1717166125896628914,2.2203967375844513e-07,0.0002329391718376428,4.705194669440971e-07,-0.8758379817008972,-6.35001742921304e-06,9.809478759765625
1717166125946814398,8.652985883372821e-08,0.00017411322914995253,4.601912451107637e-07,-0.8721819519996643,7.156331412261352e-05,9.809392929077148
1717166125988866175,1.142373093898641e-06,0.00012103672634111717,4.468579106742254e-07,-0.8609999418258667,-0.000123347548651509,9.809545516967773
1717166126046874853,1.1904784287253278e-06,7.57248853915371e-05,4.3452175191305287e-07,-0.8485417366027832,3.358333924552426e-05,9.80954360961914
1717166126097816253,1.1602865015447605e-06,3.9858336094766855e-05,4.186564126484882e-07,-0.8310678601264954,-5.204261015023803e-06,9.809544563293457
1717166126150820694,-4.97973758228909e-07,0.0002462389529682696,-1.445642396902258e-07,-0.9899016618728638,3.314849527669139e-05,9.810680389404297
1717166126197983241,1.0668843515304616e-06,0.0002638577716425061,4.6276664988909033e-07,-1.131907343864441,-4.561519745038822e-05,9.810405731201172
1717166126238936149,1.2978196650692553e-07,0.0002702430938370526,7.886038702054066e-07,-1.1982929706573486,-6.829954600107158e-06,9.809829711914062
1717166126295096971,8.350858848871212e-08,2.7295798645354807e-05,3.8942297919675184e-07,-1.0433502197265625,3.27845846186392e-05,9.808605194091797
1717166126346351112,3.984356311548254e-08,-1.2771290130331181e-05,5.0232381454407e-07,-0.9539753198623657,-4.500730210565962e-05,9.809093475341797
1717166126398190028,8.512431577401003e-07,-0.00020684943592641503,1.539332714628472e-07,-0.8176521062850952,-5.310727829055395e-06,9.808894157409668
1717166126446428299,-7.420783987299728e-08,-0.00019946583779528737,4.3010123818021384e-07,-0.7300529479980469,3.378856126801111e-05,9.809466361999512
1717166126489243772,-4.039108247866352e-08,-0.00033316516783088446,9.418713631248465e-08,-0.606161892414093,3.410784847801551e-05,9.809187889099121
1717166126541632870,-8.603512355875864e-07,-0.0002855996135622263,3.246420305913489e-07,-0.5310105085372925,-0.00016077102918643504,9.809911727905273
1717166126595489932,2.9532813528021506e-08,-0.0003912098181899637,-7.625881437434145e-08,-0.41458797454833984,0.00011326310777803883,9.809625625610352
1717166126647215977,2.1874762978768558e-07,-0.0003357111127115786,2.2498549867577822e-07,-0.3344103693962097,-4.250466008670628e-05,9.8098783493042
1717166126695485411,-6.863834300929739e-08,-0.00043467385694384575,-1.863104017729711e-07,-0.2085920125246048,-2.9590644317067927e-06,9.809664726257324
1717166126739555086,-8.757029377193248e-07,-0.000367590575478971,2.767714306628477e-07,-0.12652373313903809,0.00015326302673202008,9.810145378112793
1717166126798793250,6.738379738635558e-07,-0.00045128545025363564,-2.0060676320099446e-07,-0.011314699426293373,-0.00015888440248090774,9.809764862060547
1717166126849921389,7.029336757113924e-07,-0.00037945006624795496,-8.088426284302841e-08,0.06762861460447311,-2.147255145246163e-06,9.810004234313965
1717166126903211237,6.569953825419361e-07,-0.00046870418009348214,-3.274587641044491e-07,0.1915980726480484,3.726983777596615e-05,9.809927940368652
1717166126938922678,-2.71154647180083e-07,-0.00039205350913107395,2.9179486205066496e-07,0.27305182814598083,-4.049322160426527e-05,9.810080528259277
1717166126989892206,5.626102961286961e-07,-0.00047105050180107355,-3.9783600414011744e-07,0.390768826007843,-8.496973009641806e-07,9.80983829498291
1717166127042567593,-1.0334591706850915e-06,-0.00039366650162264705,-3.520760287756275e-07,0.464099645614624,3.823922452284023e-05,9.810140609741211
1717166127093960015,5.577045953941706e-07,-0.0004792826366610825,-5.968745995232894e-07,0.5930706262588501,-3.9431692130165175e-05,9.809809684753418
1717166127146782013,1.2218613392178668e-06,-0.0004077604680787772,2.1402252192714855e-10,0.6732823848724365,2.3068052357189117e-08,9.80994701385498
1717166127199461971,5.560649469771306e-07,-0.0004954053438268602,-5.079049287814996e-07,0.8091353178024292,5.055216547589225e-07,9.809761047363281
1717166127247864253,5.58226759039826e-07,-0.00042366961133666337,-3.8425017123699945e-07,0.8912302255630493,4.000045373686589e-05,9.809967041015625
1717166127289270340,-3.9770625903656764e-07,-0.000500876980368048,-6.73318425015168e-07,1.0239640474319458,-3.792608913499862e-05,9.809691429138184
1717166127344691786,1.17636466256954e-06,-0.00041416307794861495,-4.993261768504453e-07,1.090430498123169,1.5922155398584437e-06,9.81004810333252
1717166127405077856,4.7483263188041747e-07,-0.0004904501838609576,-8.34481681977195e-07,1.2162835597991943,4.110803274670616e-05,9.80960750579834
1717166127454386391,-4.982607038073184e-07,-0.00040907252696342766,-6.221720241228468e-07,1.2852463722229004,-3.626866600825451e-05,9.809957504272461
1717166127488759925,4.385569241094345e-07,-0.00048614497063681483,-9.250627499568509e-07,1.4185981750488281,3.4132528980990173e-06,9.809427261352539
1717166127539527745,2.59474120412051e-07,-0.000384965562261641,-8.046152402130247e-07,1.4675540924072266,4.273584272596054e-05,9.809853553771973
1717166127597351711,4.782831979355251e-07,-0.00045373692410066724,-1.0583431730992743e-06,1.5796394348144531,4.315537807997316e-05,9.8096342086792
1717166127644015831,4.7617837140023767e-07,-0.000375615491066128,-9.389776209900447e-07,1.6392109394073486,-7.36910878913477e-05,9.809584617614746
1717166127691656449,4.7219469934134395e-07,-0.00046849442878738046,-1.2278511576369056e-06,1.776926040649414,4.996451480110409e-06,9.809268951416016
1717166127739871951,4.77313733426854e-07,-0.00043007521890103817,-1.1847542964460445e-06,1.8808934688568115,5.377103207138134e-06,9.80919361114502
1717166127801751857,4.813372811440786e-07,-0.0003594669105950743,-1.2218074516567867e-06,1.9198355674743652,4.469433406484313e-05,9.809768676757812
1717166127851681608,-4.771672479364497e-07,-0.00027919915737584233,-1.2692430573224556e-06,1.9018590450286865,4.439509575604461e-05,9.809745788574219
1717166127898438779,-4.656050407447765e-07,-0.00023919035447761416,-1.3300674481797614e-06,1.9226044416427612,-7.267925684573129e-05,9.809714317321777
1717166127942827511,4.032060303416074e-07,-0.00022257474483922124,-1.3939983318778104e-06,1.9645928144454956,-3.2194817322306335e-05,9.809362411499023
1717166127994721466,3.6937663594471815e-07,-0.00022350694052875042,-1.4792186675549601e-06,2.0147013664245605,0.00012418918777257204,9.809085845947266
1717166128052259572,3.8245798350544646e-07,-0.00024045452300924808,-1.5722197304057772e-06,2.079191207885742,-3.1821211450733244e-05,9.80919075012207
1717166128094856064,4.0860231820261106e-07,-0.0002566726761870086,-1.6676315226504812e-06,2.1518149375915527,-0.00018767098663374782,9.808741569519043
1717166128144910303,1.0270376833432238e-06,-0.00027322620735503733,-1.7772059663911932e-06,2.221320867538452,8.123081897792872e-06,9.808916091918945
1717166128193437491,-5.842685482093657e-07,-0.00028548238333314657,-1.8808676713888417e-06,2.2958340644836426,4.7261532017728314e-05,9.808928489685059
1717166128239342266,2.988458049912879e-07,-0.0002988273336086422,-1.9986887309642043e-06,2.3659753799438477,-2.9119499231455848e-05,9.808783531188965
1717166128291875507,-6.415583015950688e-07,-3.64536426786799e-05,-1.786017264748807e-06,2.3216874599456787,-2.9371030905167572e-05,9.809643745422363
1717166128344802477,2.498640299108956e-07,0.0008581505389884114,-8.540414455637801e-07,1.5658035278320312,8.376881305593997e-05,9.814040184020996
1717166128395147351,-5.32681667664292e-07,0.0016646662261337042,-3.6147266513353316e-08,0.43823063373565674,-3.9705839299131185e-05,9.815844535827637
1717166128445539905,5.599492851615651e-07,0.002051185816526413,4.765665551076381e-07,-0.345228374004364,-4.572700163407717e-06,9.813618659973145
1717166128495363272,-1.1786702458493892e-07,0.0020873115863651037,7.839785212127026e-07,-0.8237595558166504,-8.518416143488139e-05,9.811173439025879
1717166128544291561,3.549207505670893e-08,0.0019144568359479308,9.566354037815472e-07,-1.114105463027954,3.0459352274192497e-05,9.809321403503418
1717166128594651469,1.7307797861576546e-07,0.0016429545357823372,1.0493113222764805e-06,-1.2787078619003296,2.9649030693690293e-05,9.808365821838379
1717166128638733762,3.0787194305048615e-07,0.0013459728797897696,1.0879506362471147e-06,-1.3669185638427734,-9.130852959060576e-06,9.807875633239746
1717166128697866958,-3.009349143212603e-07,0.0010652407072484493,1.0886400332310586e-06,-1.411232829093933,-8.710534166311845e-05,9.807869911193848
1717166128757824296,2.8093964488107304e-07,0.0008174455724656582,1.0770619383038138e-06,-1.4204217195510864,3.0085408070590347e-05,9.808117866516113
1717166128801706133,-5.110634901939193e-07,0.0006092216935940087,1.0513474535400746e-06,-1.4163811206817627,2.9840268325642683e-05,9.808149337768555
1717166128839117697,-5.614423912447819e-07,0.0004394844581838697,1.0188684882450616e-06,-1.4003714323043823,-4.8110869101947173e-05,9.808429718017578
1717166128899713468,-6.055246331015951e-07,0.0003054622793570161,9.820308832786395e-07,-1.3767939805984497,0.00014713482232764363,9.808802604675293
1717166128951984359,9.887427268040483e-07,0.0001995179190998897,9.49213983858499e-07,-1.350658893585205,6.92087851348333e-05,9.808636665344238
1717166129001535673,3.8204359498195117e-07,0.00011833431199193001,9.124474331656529e-07,-1.3226019144058228,-4.7588553570676595e-05,9.809259414672852
1717166129040206130,-8.35607579574571e-07,5.690068064723164e-05,8.769944770392613e-07,-1.2926385402679443,-8.590442121203523e-06,9.809106826782227
1717166129092807035,2.3472192367535172e-07,1.0065258720715065e-05,8.403262086176255e-07,-1.2645134925842285,-8.455697752651758e-06,9.809426307678223
1717166129146857311,-9.219788807968143e-07,-2.3970491383806802e-05,8.072057653407683e-07,-1.234513521194458,-4.737436756840907e-05,9.809356689453125
1717166129190357869,8.89756506694539e-07,-4.9557373131392524e-05,7.754066473353305e-07,-1.2026385068893433,6.996590673225e-05,9.809443473815918
1717166129243263953,-3.285257577090306e-08,-6.844392919447273e-05,7.449354484379e-07,-1.1800968647003174,-4.657634053728543e-05,9.809532165527344
1717166129293935653,-3.587559049833544e-08,-8.104622247628868e-05,7.131772008506232e-07,-1.1481801271438599,-7.253099283843767e-06,9.809701919555664
1717166129347240111,-9.523177482151368e-07,-9.019323624670506e-05,6.841868298579357e-07,-1.1225132942199707,-7.167326657508966e-06,9.80955696105957
1717166129394437904,7.962120776028314e-07,-9.628753468859941e-05,6.575665452146495e-07,-1.0968413352966309,3.2106414437294006e-05,9.80980396270752
1717166129445236966,-1.5191977809081436e-07,-0.0001001379860099405,6.335773150567547e-07,-1.067419171333313,-4.6215700422180817e-05,9.809659957885742
1717166129489564962,7.768069849589665e-07,-0.0001028546248562634,6.071352345315972e-07,-1.0461169481277466,-6.986083462834358e-06,9.809670448303223
1717166129539922353,-1.5487666260582955e-08,-0.00010364535410190001,5.824404070153832e-07,-1.0179449319839478,3.2060619560070336e-05,9.809760093688965
1717166129595590718,9.565949312673183e-07,-0.00010344279144192114,5.597061658590974e-07,-0.9953926801681519,-4.5806809794157743e-05,9.809770584106445
1717166129648461734,-5.629358952319308e-07,2.544351627875585e-05,5.027643510402413e-07,-1.128517985343933,-7.311778063012753e-06,9.810599327087402
1717166129702559639,6.035002542148504e-08,-4.7107030695769936e-05,7.793279905854433e-07,-1.0528925657272339,3.207326153642498e-05,9.809444427490234
1717166129739055834,1.0027891903519048e-06,1.0163555998587981e-05,7.438331408593513e-07,-1.0760177373886108,-4.615039506461471e-05,9.809908866882324
1717166129793585147,-5.464029868562648e-07,-0.00016334440442733467,3.510322414967959e-07,-0.9559652209281921,-6.411949470930267e-06,9.80908203125
1717166129848790851,5.429249938515568e-08,-0.00014003092655912042,6.133384431450395e-07,-0.8827672600746155,3.3000884286593646e-05,9.809494972229004
1717166129896919770,2.3949962724145735e-07,-0.0002965130261145532,2.2632849550063838e-07,-0.7551469802856445,-0.00012302670802455395,9.809220314025879
1717166129946847783,-6.432281907109427e-07,-0.00024109421065077186,4.846530146096484e-07,-0.6875216364860535,0.0001118320069508627,9.809789657592773
1717166129998346150,5.5763745621106864e-08,-0.0003609093255363405,1.5056120616918633e-07,-0.572989821434021,-4.389922833070159e-05,9.809430122375488
1717166130044339168,-2.2457888917415403e-06,-0.00029075314523652196,3.627496028002497e-07,-0.5103331804275513,-4.745926162286196e-06,9.809996604919434
1717166130089733351,8.810226290734136e-07,-0.00039351615123450756,1.4080624666235053e-08,-0.390780508518219,3.495729833957739e-05,9.809632301330566
1717166130140120250,-1.1154024370796378e-08,-0.0003132883575744927,2.5311726403742796e-07,-0.3356133699417114,-4.308105417294428e-05,9.810114860534668
1717166130196306420,-6.662173177574005e-07,-0.0004109891888219863,-8.637117332455091e-08,-0.21668043732643127,-3.4712393244262785e-06,9.80974292755127
1717166130245102857,3.823647176659506e-08,-0.0003379587142262608,2.252302948591023e-07,-0.14712782204151154,7.473710866179317e-05,9.80998706817627
1717166130296451069,9.033412595726986e-08,-0.00043760071275755763,-1.8606542084853572e-07,-0.023804249241948128,-0.00011986390745732933,9.80976390838623
1717166130340851864,-6.107229069129971e-07,-0.00036063266452401876,3.119216174241046e-08,0.053883831948041916,3.664302857941948e-05,9.810159683227539
1717166130395659329,-8.282294743366947e-07,-0.00044494582107290626,-2.371829594949304e-07,0.16533762216567993,7.606307190144435e-05,9.809770584106445
1717166130445396579,1.5439417211382533e-07,-0.00035947124706581235,1.8813894886449134e-09,0.23365594446659088,-7.98372202552855e-05,9.810236930847168
1717166130496827477,-4.4558782974490896e-07,-0.0004385577922221273,-3.472451624020323e-07,0.34448257088661194,-4.027276736451313e-05,9.809762001037598
1717166130548527979,-4.418681953666237e-07,-0.00035901571391150355,-1.406949081683706e-07,0.40654587745666504,3.826548345386982e-05,9.810222625732422
1717166130594088792,-4.887778004558641e-07,-0.0004399229073897004,-4.533638104931015e-07,0.5298743844032288,3.8775342545704916e-05,9.809739112854004
1717166130639103606,1.317924187560493e-07,-0.00035582963027991354,-2.804134169309691e-07,0.5856876373291016,-3.904486948158592e-05,9.81019401550293
1717166130695590566,2.936995713298529e-07,-0.000440794276073575,-5.741402446801658e-07,0.7058899402618408,7.888497202657163e-05,9.80978012084961
1717166130752030952,-1.6231360859819688e-06,-0.0003674215986393392,-3.9900228898659407e-07,0.7767055630683899,-7.743291644146666e-05,9.810070991516113
1717166130801167070,-1.0483524874871364e-06,-0.0004601998662110418,-6.600496931241651e-07,0.903792142868042,4.037573671666905e-05,9.809490203857422
1717166130851788974,-8.761824119574158e-07,-0.0003895426052622497,-4.890584364147799e-07,0.9821195602416992,-3.7473644624697044e-05,9.81008529663086
1717166130890277546,-2.3737212018204445e-07,-0.00047253473894670606,-7.969260309437232e-07,1.1135880947113037,2.178954900955432e-06,9.809571266174316
1717166130945615004,6.316080316537409e-07,-0.00039181995089165866,-6.765220632587443e-07,1.1769179105758667,2.468713319103699e-06,9.809926986694336
1717166130998732199,-3.0738968348487106e-07,-0.0004722648300230503,-9.13667236090987e-07,1.3027615547180176,4.207296660752036e-05,9.809560775756836
1717166131039619762,-1.24537461942964e-06,-0.00041045091347768903,-8.37771608530602e-07,1.3798470497131348,4.223570067551918e-05,9.809748649597168
1717166131094308713,-3.617161894453602e-07,-0.00048349215649068356,-1.054043877957156e-06,1.5257011651992798,-7.435892621288076e-05,9.809209823608398
1717166131148904694,-3.5331396475157817e-07,-0.0004084486572537571,-1.0316516636521555e-06,1.583411693572998,3.980416295235045e-06,9.810020446777344
1717166131196469887,5.868529910912912e-07,-0.0003514426643960178,-1.0679608521968476e-06,1.6135952472686768,-3.481980093056336e-05,9.809825897216797
1717166131248623372,-6.943159291949996e-08,-0.00030678699840791523,-1.1304404097245424e-06,1.6425020694732666,4.4338099542073905e-05,9.809789657592773
1717166131289717715,5.756938321610505e-07,-0.0002814724575728178,-1.1916678204215714e-06,1.6888935565948486,8.361524669453502e-05,9.809672355651855
1717166131341750961,-1.1739517447040271e-07,-0.00027061390574090183,-1.2579861277117743e-06,1.7409018278121948,-3.316219226690009e-05,9.809553146362305
1717166131396697949,-1.0800906693475554e-06,-0.00027635160950012505,-1.3373324918575236e-06,1.8066611289978027,-3.299974923720583e-05,9.809270858764648
1717166131445472913,4.4005125232615683e-07,-0.0002920862752944231,-1.4381153050635476e-06,1.8824265003204346,6.645651410508435e-06,9.80921745300293
1717166131489761993,3.6401189618118224e-07,-0.0003035810077562928,-1.5313769381464226e-06,1.9644501209259033,-0.0001494242751505226,9.809234619140625
1717166131546443624,-5.71892826428666e-07,-0.00031338800908997655,-1.6281393300232594e-06,2.035227060317993,4.6099405153654516e-05,9.809019088745117
1717166131596403612,-6.056399115550448e-07,-0.0003283979604020715,-1.7372979073115857e-06,2.117884874343872,7.43285772841773e-06,9.809030532836914
1717166131639621564,-6.090107831369096e-07,-0.0003370039339642972,-1.8526234271121211e-06,2.2042996883392334,-3.0052919100853615e-05,9.808878898620605
1717166131689509380,2.963179497328383e-07,-0.0003351951017975807,-1.960705731107737e-06,2.2750885486602783,-2.9682210879400373e-05,9.80904483795166
1717166131744135829,2.889884171963786e-07,-5.4148589697433636e-05,-1.7286438378505409e-06,2.217059850692749,-2.9890265068388544e-05,9.80998706817627
1717166131794357565,-5.972410122012661e-07,0.0008392196032218635,-7.956705871947634e-07,1.4618078470230103,0.00016124796820804477,9.814046859741211
1717166131843682254,-5.276166916701186e-07,0.0016338001005351543,2.3208597710322465e-08,0.34987160563468933,-0.000118125113658607,9.815887451171875
1717166131901225478,5.437368599814363e-07,0.0020113533828407526,5.336137292033527e-07,-0.4123174846172333,3.416293111513369e-05,9.81355094909668
1717166131943061471,-8.249916163549642e-07,0.002044865395873785,8.414561989411595e-07,-0.8808251619338989,-7.460647793777753e-06,9.811088562011719
1717166131995177149,9.15338318918657e-07,0.0018727038986980915,1.01380192063516e-06,-1.161777377128601,-8.695371798239648e-05,9.809305191040039
1717166132045339226,1.0416381428512977e-06,0.0016059448244050145,1.1003550071109203e-06,-1.323859691619873,2.9760511097265407e-05,9.808423042297363
1717166132096972770,-5.231494242252666e-07,0.0013142672833055258,1.1312588412693003e-06,-1.4070545434951782,2.9325708965188824e-05,9.807853698730469
1717166132139114375,1.5285016274901864e-07,0.0010375675046816468,1.1377486544006388e-06,-1.4451082944869995,-4.914508463116363e-05,9.8079252243042
1717166132191176906,1.568470509027975e-07,0.0007948618149384856,1.120967795031902e-06,-1.4592866897583008,2.913211028499063e-05,9.808016777038574
1717166132244315579,6.241312888732864e-08,0.0005907184677198529,1.0925904234682093e-06,-1.4496054649353027,-9.168777069135103e-06,9.808282852172852
1717166132294890159,-1.8669978896213024e-09,0.0004248092300258577,1.060118961504486e-06,-1.4335905313491821,-8.731285197427496e-05,9.808408737182617
1717166132348170570,-3.114611235588427e-09,0.0002931577619165182,1.0216791679340531e-06,-1.4087525606155396,2.987827429024037e-05,9.808626174926758
1717166132400583164,-5.894467562939099e-07,0.00018992317200172693,9.83396716947027e-07,-1.3813623189926147,2.9818753318977542e-05,9.808930397033691
1717166132443395296,-7.708393923167023e-07,0.00011004573025275022,9.459351986151887e-07,-1.3526803255081177,0.00010828423546627164,9.809006690979004
1717166132499967019,1.6731927132696e-07,4.982949030818418e-05,9.117594572671806e-07,-1.3239617347717285,3.0408908060053363e-05,9.809322357177734
1717166132548349215,1.3398634735040105e-07,4.514233751251595e-06,8.738718406675616e-07,-1.292711615562439,-8.503751814714633e-06,9.809174537658691
1717166132591450297,1.0339936125092208e-06,-2.9529304811148904e-05,8.413087471126346e-07,-1.258961796760559,3.0720457289135084e-05,9.809496879577637
1717166132641848900,1.2350359668289457e-07,4.5277025492396206e-05,8.870124474924523e-07,-1.3602432012557983,-4.8163303290493786e-05,9.810011863708496
1717166132694994583,4.319005881825433e-07,-4.748590072267689e-05,7.848140057831188e-07,-1.2789931297302246,-8.711113878234755e-06,9.809252738952637
1717166132744303609,-5.222346430855396e-07,-0.00015296120545826852,6.959930942684878e-07,-1.1551750898361206,3.122730413451791e-05,9.808982849121094
1717166132796698660,1.0352654271628126e-06,-0.00024764687987044454,5.68803443457e-07,-1.0275706052780151,-0.00012387477909214795,9.809106826782227
1717166132840448640,1.2823906558878662e-07,-0.0002966781030409038,7.074698373799038e-07,-0.9136795401573181,0.00011094759975094348,9.80922794342041
1717166132895057755,7.34909590960342e-08,-0.00036275957245379686,1.769462301126623e-07,-0.8085123896598816,-4.492067455430515e-05,9.809501647949219
1717166132942886227,9.447020374864223e-07,-0.0003090868704020977,5.669230631610844e-07,-0.7496057152748108,-5.545081421587383e-06,9.809918403625488
1717166133000460964,2.2112873310220493e-08,-0.0003971162950620055,2.5064676378860895e-07,-0.634422779083252,3.4172542655142024e-05,9.80964183807373
1717166133046914079,1.6969595151294925e-07,-0.00034675479400902987,4.007447671483533e-07,-0.5529951453208923,-4.368738518678583e-05,9.809823989868164
1717166133089473135,-8.07369644917344e-07,-0.0004260168643668294,1.3717021829506848e-07,-0.4340466260910034,-4.3946251935267355e-06,9.809776306152344
1717166133148796214,-1.2530341564342962e-07,-0.00035499053774401546,2.66375963065002e-07,-0.3676137328147888,3.4882075851783156e-05,9.810028076171875
1717166133200296238,-9.724445959591321e-08,-0.0004321532614994794,2.4093555595072758e-08,-0.2536599636077881,-4.2774459870997816e-05,9.809814453125
1717166133247305665,-6.68751113153121e-07,-0.00036556116538122296,1.4950693127957493e-07,-0.1809718757867813,7.462916983058676e-05,9.810138702392578
1717166133290326433,1.0660301796860949e-07,-0.00043832568917423487,-8.401321593964894e-08,-0.06201807036995888,-0.00012013968080282211,9.809761047363281
1717166133343135358,-4.991933337805676e-07,-0.0003620241768658161,4.088085603370928e-08,-0.0005800026119686663,3.648521305876784e-05,9.810235023498535
1717166133396481334,1.7813572128488886e-07,-0.00043646132689900696,-2.017494153960797e-07,0.11087379604578018,-1.9786359644058393e-06,9.809769630432129
1717166133445329756,-4.6694870547980827e-07,-0.000370863446732983,-8.09778768484648e-08,0.18981188535690308,-1.806041836971417e-06,9.8102388381958
1717166133489841500,-4.741334294067201e-07,-0.00044051502482034266,-3.125342402654496e-07,0.30251985788345337,3.7865014746785164e-05,9.809764862060547
1717166133542504006,1.0483209962330875e-06,-0.0003697987413033843,-2.126430160842574e-07,0.3702128529548645,-3.9747679693391547e-05,9.810149192810059
1717166133597125233,-6.24014944605733e-07,-0.0004385688225738704,-4.240052646764525e-07,0.48291629552841187,-4.220100038310193e-07,9.809823989868164
1717166133646164194,2.2489950879389653e-07,-0.00038368208333849907,-3.416475635731331e-07,0.5606127977371216,3.886154809151776e-05,9.810121536254883
1717166133689489092,9.465514381190587e-07,-0.00044424706720747054,-5.399866722655133e-07,0.6833221316337585,-3.857817137031816e-05,9.809708595275879
1717166133750669946,-7.039739671199641e-07,-0.0003967007505707443,-4.785295573128678e-07,0.7547732591629028,6.865113277854107e-07,9.810078620910645
1717166133790802183,7.986108130353387e-07,-0.0004241786664351821,-6.352339028126153e-07,0.8612278699874878,4.090987567906268e-05,9.809814453125
1717166133845493436,1.5523331953204433e-08,-0.0003691072924993932,-5.866961032552354e-07,0.9126673936843872,4.1255705582443625e-05,9.810025215148926
1717166133899911576,-1.92901734408224e-06,-0.00037189741851761937,-6.991447207838064e-07,0.9928509593009949,-7.592285692226142e-05,9.8099946975708
1717166133939187234,-4.396588906274701e-07,-0.00034043751657009125,-7.319282531170757e-07,1.049272894859314,8.039129170356318e-05,9.81004524230957
1717166133994425844,5.398672442424868e-07,-0.0003228922432754189,-7.8645109624631e-07,1.1094342470169067,-0.00015348535089287907,9.809782028198242
1717166134047246100,-3.3304678481727024e-07,-0.00031642281101085246,-8.46982629809645e-07,1.172088623046875,0.00012012559454888105,9.809829711914062
1717166134097485104,-3.2763739454821916e-07,-0.00032188353361561894,-9.231839044332446e-07,1.2497464418411255,4.235176311340183e-05,9.809792518615723
1717166134145118110,-2.903584004343429e-07,-0.00033383897971361876,-9.966187235477264e-07,1.331157922744751,-7.444381481036544e-05,9.809596061706543
1717166134188890088,6.190884391799045e-07,-0.0003375927626620978,-1.074025931302458e-06,1.4150738716125488,-0.0001129491938627325,9.809473037719727
1717166134244650520,6.37714947515633e-07,-0.00034006292116828263,-1.1539807474036934e-06,1.4914900064468384,-3.4433847758919e-05,9.809584617614746
1717166134296296706,5.956885615887586e-07,-0.0003454471880104393,-1.2402730362737202e-06,1.5666582584381104,-3.40690603479743e-05,9.809693336486816
1717166134345247189,-3.713490457357693e-07,-0.00035676106926985085,-1.3345460274649668e-06,1.656830072402954,0.00012259081995580345,9.809246063232422
1717166134389280799,4.59291669585582e-07,-0.0003607138933148235,-1.4276804449764313e-06,1.744507908821106,-0.00011045516293961555,9.80942153930664
1717166134440531961,-4.347450328623381e-07,-0.0003613924782257527,-1.525445895822486e-06,1.8196845054626465,8.50433498271741e-05,9.80936336517334
1717166134495547168,-4.4306199242782895e-07,-0.0003671740123536438,-1.63263860031293e-06,1.9073634147644043,-3.159868356306106e-05,9.809220314025879
1717166134545539272,-4.786400609191332e-07,-0.00037905346835032105,-1.7550219126860611e-06,1.998797059059143,7.872687092458364e-06,9.809226989746094
1717166134597470873,-4.593115079387644e-07,-0.00039318707422353327,-1.881339244391711e-06,2.0952374935150146,-3.0609262466896325e-05,9.80907154083252
1717166134640699091,4.115053116038325e-07,-0.00012733587936963886,-1.6681129864082322e-06,2.066615343093872,4.7526758862659335e-05,9.809915542602539
1717166134698009423,3.962602761475864e-07,0.0007491221185773611,-7.438733859999047e-07,1.3401576280593872,4.493232609092956e-06,9.81423282623291
1717166134752182288,-4.531142394625931e-07,0.0015426402678713202,8.576284926675726e-08,0.25951698422431946,3.785317312576808e-05,9.815617561340332
1717166134803199862,-3.412582429973554e-07,0.0019274571677669883,6.043832740942889e-07,-0.492632120847702,-0.00012242604861967266,9.81386947631836
1717166134844611898,6.922763873262738e-07,0.0019714729860424995,9.243573231287883e-07,-0.9573512077331543,3.152391582261771e-05,9.810917854309082
1717166134900127053,4.533621833502366e-08,0.0018102048197761178,1.0984971368088736e-06,-1.227020502090454,3.0074270398472436e-05,9.809514045715332
1717166134953487396,-7.703354754085012e-07,0.0015531795797869563,1.1808149338321527e-06,-1.384079098701477,-8.811774750938639e-05,9.808391571044922
1717166134992904693,8.98459916243155e-07,0.0012717641657218337,1.2128359685448231e-06,-1.467247724533081,6.782345735700801e-05,9.80789852142334
1717166135046602221,-8.291670496873849e-07,0.0010034345323219895,1.218803276969993e-06,-1.5040305852890015,-4.96399516123347e-05,9.807890892028809
1717166135096147540,1.350947087530585e-07,0.0007670281338505447,1.199034727505932e-06,-1.5144433975219727,2.849579141184222e-05,9.808138847351074
1717166135146694239,1.6531470237168833e-07,0.0005684613715857267,1.1619924862316111e-06,-1.5022568702697754,-1.0239070434181485e-05,9.808248519897461
1717166135189354874,-1.394012770106201e-06,0.00040630190051160753,1.1295610420347657e-06,-1.4874815940856934,2.8363630917738192e-05,9.808296203613281
1717166135244000641,2.431955294923682e-07,0.0002774417807813734,1.0895855666603893e-06,-1.4601384401321411,-0.00012733659241348505,9.80882740020752
1717166135295263790,2.3454575170944736e-07,0.00017698804731480777,1.0445378393342253e-06,-1.4302377700805664,2.994943133671768e-05,9.808820724487305
1717166135346091932,2.3229968348914554e-07,9.984770440496504e-05,1.0115612667505047e-06,-1.402800440788269,-9.231609510607086e-06,9.808976173400879
1717166135389364215,-6.274348152146558e-07,3.998379543190822e-05,9.707641765999142e-07,-1.3703266382217407,-9.091845640796237e-06,9.809293746948242
1717166135444163816,-6.021753051754786e-07,-4.270028966857353e-06,9.257335591428273e-07,-1.3390766382217407,0.00018637046741787344,9.809224128723145
1717166135500035165,3.7884242942709534e-07,-3.6780056689167395e-05,8.933549793255224e-07,-1.3040766716003418,3.0288229027064517e-05,9.80931282043457
1717166135551137056,-2.496606725799211e-07,-6.089388261898421e-05,8.531141020284849e-07,-1.2802953720092773,-4.776402420247905e-05,9.809557914733887
1717166135588813600,-2.0421725821506698e-07,-7.838905730750412e-05,8.214913123083534e-07,-1.2490086555480957,-8.255594366346486e-06,9.809414863586426
1717166135646853376,-1.1470353911136044e-06,-9.07475987332873e-05,7.902608558651991e-07,-1.213966965675354,3.0932744266465306e-05,9.809664726257324
1717166135705855665,-3.304926963210164e-07,-9.91316992440261e-05,7.566729891550494e-07,-1.191420078277588,-4.697995973401703e-05,9.809598922729492
1717166135752113079,-3.726327975073218e-07,-0.0001045008611981757,7.274595645867521e-07,-1.161367654800415,-7.836306394892745e-06,9.809535026550293
1717166135790678373,-4.5234540380079125e-07,-0.00010810044477693737,6.973942276999878e-07,-1.1300655603408813,3.1161034712567925e-05,9.80986213684082
1717166135852865596,-2.0290219708840596e-06,-0.0001101442176150158,6.675211920992297e-07,-1.1087632179260254,-0.0001251035719178617,9.809560775756836
1717166135898826974,2.3799256609891017e-07,2.849480097211199e-06,6.916045549587579e-07,-1.2250134944915771,0.00010871390259126201,9.810468673706055
1717166135939291651,2.680022248569003e-07,-9.32406255742535e-05,1.0513920187804615e-06,-1.137492299079895,-4.635267396224663e-05,9.809399604797363
1717166135993922908,3.4386965808153036e-07,-7.738023123238236e-05,5.068689006293425e-07,-1.0636951923370361,-6.884147296659648e-06,9.809423446655273
1717166136047235172,-3.168319722135493e-07,-0.00021776178618893027,4.2604767713783076e-07,-0.9786116480827332,3.237922283005901e-05,9.809374809265137
1717166136089644680,3.528878096403787e-07,-0.000182726580533199,6.419068085961044e-07,-0.9122623801231384,-4.540248846751638e-05,9.809399604797363
1717166136140033829,3.0833587061351864e-07,-0.0003099906607531011,3.0706914344591496e-07,-0.7958817481994629,-5.793189302494284e-06,9.809436798095703
1717166136194017532,2.6915498096968804e-07,-0.00025323888985440135,5.21113463491929e-07,-0.7332512140274048,3.356478555360809e-05,9.80985164642334
1717166136245617540,-1.3045907962805359e-06,-0.0003708004078362137,2.0549705936900864e-07,-0.6155838966369629,-5.492537184181856e-06,9.809416770935059
1717166136298461976,3.3390094245078217e-07,-0.00030411052284762263,3.98883884145107e-07,-0.5416719913482666,-8.300136687466875e-05,9.809986114501953
1717166136338864607,3.7291692933649756e-07,-0.0004061372601427138,8.94177816235242e-08,-0.4252443313598633,7.380879105767235e-05,9.809622764587402
1717166136391807485,3.890166908604442e-07,-0.00032363252830691636,2.884567038563546e-07,-0.36632195115089417,-4.308247662265785e-05,9.810107231140137
1717166136447025254,-1.21795915219991e-06,-0.00042043437133543193,-8.176605170717721e-09,-0.24737857282161713,-3.5503451272234088e-06,9.809659004211426
1717166136496582882,-3.576124072424136e-07,-0.00034360785502940416,2.0589688176642085e-07,-0.17845098674297333,-3.175924575771205e-06,9.81021785736084
1717166136541673811,2.798989839902788e-07,-0.0004339474835433066,-1.0211497425416383e-07,-0.05825239047408104,3.653826570371166e-05,9.809682846069336
1717166136591551013,4.268405291441013e-07,-0.00034900239552371204,8.657222849706159e-08,0.0019356734119355679,-4.129627632210031e-05,9.810235023498535
1717166136649235221,-1.361352929052373e-06,-0.00043895922135561705,-2.0397524735926709e-07,0.12338424474000931,-2.05093715521798e-06,9.809770584106445
1717166136701135578,1.099967562367965e-06,-0.0003624808450695127,-5.922545298631121e-08,0.18982234597206116,3.753509372472763e-05,9.81008243560791
1717166136749980784,-1.5251680451910943e-06,-0.00045641211909241974,-3.347295773892256e-07,0.3200339078903198,-4.0090151742333546e-05,9.809764862060547
1717166136789338918,-1.4064735864849354e-07,-0.000374866824131459,-2.0464649708173965e-07,0.39273154735565186,-8.738905989957857e-07,9.810225486755371
1717166136849243158,-1.0637221521392348e-06,-0.00045570399379357696,-4.2726588844743674e-07,0.5104420185089111,3.8646376196993515e-05,9.80974292755127
1717166136903503567,7.062801046231471e-07,-0.00037602533120661974,-2.89868296476925e-07,0.5743885040283203,-3.9007147279335186e-05,9.81011962890625
1717166136951182371,-1.8173304852098227e-06,-0.0004632309137377888,-5.303230636855005e-07,0.7058513164520264,3.936090706702089e-07,9.809782981872559
1717166136991706097,6.231586553440138e-07,-0.00038219959242269397,-4.152923622768867e-07,0.772302508354187,3.978527456638403e-05,9.809995651245117
1717166137048181930,-2.5895488420246693e-07,-0.00045643685734830797,-6.63452340177173e-07,0.8912641406059265,1.1001685606970568e-06,9.809807777404785
1717166137097609572,6.561782015523931e-07,-0.0003840445133391768,-5.618081218017323e-07,0.9564641714096069,-7.672770152566954e-05,9.810014724731445
1717166137141333849,7.092826308507938e-07,-0.00045512247015722096,-7.89796558819944e-07,1.082926869392395,8.025308488868177e-05,9.809659004211426
1717166137196891121,-2.0018161706047977e-07,-0.00039820600068196654,-7.115073117347492e-07,1.1518793106079102,-3.623316661105491e-05,9.809858322143555
1717166137239690017,-1.7980808308948326e-07,-0.00045012938790023327,-8.963149298324424e-07,1.2808444499969482,3.4618578865774907e-06,9.809649467468262
1717166137292519457,-1.750092337715614e-07,-0.00037880221498198807,-8.571478815611044e-07,1.3285409212112427,8.187692583305761e-05,9.809846878051758
1717166137346620353,-1.9861747091454163e-07,-0.00034162052907049656,-9.18237446967396e-07,1.3724652528762817,-7.41101466701366e-05,9.809968948364258
1717166137389935868,-2.2486560169454606e-07,-0.00029756565345451236,-9.678924470790662e-07,1.4063671827316284,4.3282365368213505e-05,9.809938430786133
1717166137441076705,5.793917807750404e-07,-0.00027495448011904955,-1.0177743661188288e-06,1.4440064430236816,-3.465716872597113e-05,9.809829711914062
1717166137496194755,-1.2084596789918578e-07,-0.0002718315809033811,-1.0889278883041698e-06,1.5066395998001099,4.763070137414616e-06,9.809636116027832
1717166137547003849,-1.1194088074262254e-06,-0.0002829571603797376,-1.1652476814560941e-06,1.5792763233184814,8.29658965812996e-05,9.809357643127441
1717166137589208301,-4.742850592265313e-07,-0.0002911245683208108,-1.245147132067359e-06,1.6531678438186646,-0.0001119311637012288,9.809466361999512
1717166137639267505,3.6641500855694176e-07,-0.0002993343223351985,-1.3324665815162007e-06,1.7208141088485718,-0.00011130669736303389,9.809419631958008
1717166137694167792,2.397503067186335e-07,-0.0003132097772322595,-1.4239268466553767e-06,1.8034648895263672,4.6326258598128334e-05,9.809285163879395
1717166137751157119,-8.490283676110266e-08,-0.0003307971346657723,-1.5302138081096928e-06,1.888625144958496,-7.075820758473128e-05,9.809146881103516
1717166137789426554,-7.963811867739423e-07,-0.0003406610630918294,-1.6251223087238031e-06,1.9725412130355835,0.0001247612090082839,9.80908203125
1717166137840035241,8.616970603725349e-07,-0.0003478848375380039,-1.7363765891786898e-06,2.047710657119751,-0.00014797566109336913,9.809174537658691
1717166137896291810,-7.150573537728633e-07,-0.00035756375291384757,-1.8535355366111617e-06,2.1416313648223877,4.7785444621695206e-05,9.809099197387695
1717166137955156707,8.761072933793912e-08,-0.0003733799676410854,-1.9855433492921293e-06,2.2318148612976074,8.724001963855699e-05,9.808863639831543
1717166137991091430,7.444341463269666e-07,-0.0003811380302067846,-2.121025545420707e-06,2.3232507705688477,-2.8118100090068765e-05,9.808856964111328
1717166138042099325,7.136286512832157e-07,-0.00037741553387604654,-2.2419758352043573e-06,2.4059367179870605,1.1419003385526594e-05,9.808852195739746
1717166138102464962,1.7269179863887985e-08,-0.00037513853749260306,-2.376619249844225e-06,2.484872817993164,5.081241761217825e-05,9.808845520019531
1717166138155576040,3.8923037237736935e-08,-0.00010801677854033187,-2.1802945866511436e-06,2.4449925422668457,-0.00018378152162767947,9.809617042541504
1717166138205287752,9.518453225609846e-08,0.0007908431580290198,-1.1731098084055702e-06,1.717266321182251,-3.165080852340907e-05,9.813855171203613
1717166138239082527,1.4162215222768282e-07,0.0017080958932638168,-1.193317871184263e-07,0.5178188681602478,7.842708146199584e-05,9.816427230834961
1717166138301834850,-6.536643013532739e-07,0.0021949566435068846,5.864710033165466e-07,-0.3919452130794525,-8.318932668771595e-05,9.814342498779297
1717166138354944414,-4.5719133368038456e-07,0.0022836714051663876,1.0128401299880352e-06,-0.9580642580986023,-8.484494173899293e-06,9.811674118041992
1717166138408163014,1.364330387332302e-06,0.0021200478076934814,1.2582306680997135e-06,-1.3028881549835205,-0.00016648495511617512,9.809412002563477
1717166138449972016,-2.9384965571921384e-08,0.0018339931266382337,1.3867448842574959e-06,-1.4913387298583984,0.00022300038835965097,9.808268547058105
1717166138489798044,7.670258383996043e-08,0.001511298818513751,1.4449727814280777e-06,-1.6033828258514404,0.00010533382010180503,9.807746887207031
1717166138538985481,1.812828713809722e-07,0.001199080841615796,1.446152509743115e-06,-1.6490200757980347,-5.1067385356873274e-05,9.807713508605957
1717166138588935151,2.605982274417329e-07,0.0009224989335052669,1.4280699360824656e-06,-1.6645163297653198,2.6835323296836577e-05,9.80762767791748
1717166138639307093,1.2690571793427807e-06,0.0006879233405925333,1.3933333775639767e-06,-1.6623873710632324,-5.0341048336122185e-05,9.807877540588379
1717166138692544583,4.7254957280529197e-07,0.0004961533122695982,1.3531411013900652e-06,-1.6401642560958862,2.8121907234890386e-05,9.8082275390625
1717166138739113282,-2.4706611156943836e-07,0.0003434353566262871,1.302679152104247e-06,-1.616607666015625,-1.0766360901470762e-05,9.808436393737793
1717166138791136159,2.73031758979414e-07,0.00022372283274307847,1.256318000741885e-06,-1.580483078956604,-8.875708590494469e-05,9.80858325958252
1717166138840536565,4.179409245352872e-07,0.00013143093383405358,1.2057480489602312e-06,-1.5518114566802979,2.83629688055953e-05,9.808813095092773
1717166138889885760,-4.3786261016975914e-07,6.106288492446765e-05,1.1546720770638785e-06,-1.5181034803390503,2.854946615116205e-05,9.809050559997559
1717166138950976379,3.033446489553171e-07,8.398073077842128e-06,1.112454242502281e-06,-1.4818534851074219,-1.031999727274524e-05,9.809218406677246
1717166139000179921,3.3407712862754124e-07,-3.1598876375937834e-05,1.0700154007281526e-06,-1.4456034898757935,-4.918939885101281e-05,9.809151649475098
1717166139055707676,-4.3967810370304505e-07,-6.051515811122954e-05,1.022438027575845e-06,-1.414332628250122,2.9088636438245885e-05,9.809399604797363
1717166139088754952,-4.6473630277432676e-07,1.0202070370723959e-05,1.0706015700634453e-06,-1.4918328523635864,-1.038678328768583e-05,9.809922218322754
1717166139139939679,-2.7638446908895276e-07,-4.211917985230684e-05,9.839516224019462e-07,-1.4318325519561768,6.805794691899791e-05,9.80931568145752
1717166139202098367,1.1001932165299877e-07,-0.00011104152508778498,9.08300705759757e-07,-1.3642854690551758,3.0257888283813372e-05,9.809187889099121
1717166139250232953,-1.5166706361924298e-06,-0.00017541770648676902,8.289545689876832e-07,-1.262957215309143,3.055981869692914e-05,9.809074401855469
1717166139290818434,9.660992645876831e-07,-0.0002333299780730158,7.585206276417011e-07,-1.1791027784347534,3.1165840482572094e-05,9.809345245361328
1717166139346661777,-2.8711850674767447e-08,-0.00028678131639026105,6.495185402854986e-07,-1.068972110748291,-4.6540622861357406e-05,9.809235572814941
1717166139397489605,-6.688823646072706e-07,-0.00033391971373930573,6.035492106093443e-07,-0.9650654196739197,-7.246670975291636e-06,9.809514045715332
1717166139447122502,5.5359240747065996e-08,-0.00037242338294163346,4.239776103531767e-07,-0.8486378192901611,3.2382540666731074e-05,9.80955982208252
1717166139493161733,8.607713652963866e-08,-0.0003941094037145376,7.05503794051765e-07,-0.740944504737854,-4.5038079406367615e-05,9.809600830078125
1717166139545381341,-5.951592356723268e-07,-0.00040549933328293264,-9.882190852295025e-07,-0.6482511758804321,-5.675728971255012e-06,9.809712409973145
1717166139597108248,1.0352286139436728e-08,-0.0004147514991927892,8.549192898499314e-06,-0.5380474328994751,3.397479304112494e-05,9.809823989868164
1717166139644520877,1.1936187149785837e-07,-0.0004166824510321021,-6.096348079154268e-05,-0.45159363746643066,-4.890380751021439e-06,9.809926986694336
1717166139688672611,1.0608079037410789e-07,-0.0004029602278023958,0.0004523902025539428,-0.3563898801803589,-0.0008227122016251087,9.810028076171875
1717166139746424209,5.510390224117145e-07,-0.00041294979746453464,-0.0005715032457374036,-0.2761913537979126,0.001831197994761169,9.809967041015625
1717166139798033227,-8.68231353479132e-08,-0.0003399132110644132,6.270351877901703e-05,-0.2260136902332306,-0.0015660912031307817,9.810290336608887
1717166139839738546,1.0337427056583692e-06,-0.00040016285493038595,-4.347790763858939e-06,-0.12207555770874023,0.0005437492509372532,9.809911727905273
1717166139888995862,1.0354100368203945e-06,-0.00034844549372792244,3.539913677741424e-07,-0.04939791187644005,-2.710883109102724e-06,9.80999755859375
1717166139955799121,1.0265972605338902e-06,-0.0004194991197437048,-1.6752544240716816e-07,0.0682954266667366,-4.0960316255223006e-05,9.809846878051758
1717166140003704750,2.5358586341894807e-08,-0.00037554698064923286,-8.873521295527098e-08,0.14973872900009155,-1.6980471855276846e-06,9.81008243560791
1717166140040452187,-6.384535709003103e-07,-0.0004328917420934886,-2.769699847249285e-07,0.2636924982070923,3.784795626415871e-05,9.809767723083496
1717166140099838757,-2.6338462078001612e-08,-0.0003811031056102365,-2.1174207631702302e-07,0.33888566493988037,-3.987842865171842e-05,9.810073852539062
1717166140149653578,-1.3846248236859537e-07,-0.00043329541222192347,-3.8397777757381846e-07,0.4465903043746948,-3.513914634822868e-07,9.809906959533691
1717166140189541084,7.600201001878304e-07,-0.0003855734539683908,-3.3747878092071915e-07,0.524285614490509,3.9194994315039366e-05,9.810128211975098
1717166140243479235,-1.745576469147636e-06,-0.00041117228101938963,-4.856971713707026e-07,0.6182355880737305,-3.8775695429649204e-05,9.809953689575195
1717166140297130797,-1.5652425133794168e-07,-0.0003767683811020106,-4.5599597342516063e-07,0.6896738409996033,6.915997232681548e-07,9.809935569763184
1717166140346216806,-1.341575597280098e-07,-0.0003954712301492691,-5.845810733262624e-07,0.7848668098449707,4.02857840526849e-05,9.809910774230957
1717166140397564397,-1.6670549030095572e-07,-0.0003820765414275229,-6.214441441443341e-07,0.8625539541244507,-3.739623207366094e-05,9.810042381286621
1717166140439280584,-1.8027611758952844e-07,-0.0003724034468177706,-6.761965209989285e-07,0.9439898729324341,2.1137479961907957e-06,9.809779167175293
1717166140492185996,-2.2927999054900283e-07,-0.00035893742460757494,-7.370713319687638e-07,1.0116676092147827,2.370292577325017e-06,9.809985160827637
1717166140545753239,-8.967448934527056e-07,-0.0003550370456650853,-8.075298296716937e-07,1.0905919075012207,4.1733448597369716e-05,9.809796333312988
1717166140597681667,-2.5106743350988836e-07,-0.00035779853351414204,-8.800931823316205e-07,1.1695172786712646,-3.613784065237269e-05,9.80983829498291
1717166140641002853,6.290043188528216e-07,-0.00035552357439883053,-9.460507044423139e-07,1.254692554473877,-3.5564018617151305e-05,9.809563636779785
1717166140688699341,-9.721386504679685e-07,-0.00034265610156580806,-1.009392235573614e-06,1.3186134099960327,-7.4275019869674e-05,9.809917449951172
1717166140740275852,4.841165264224401e-07,-0.0003228762943763286,-1.07153891804046e-06,1.378774881362915,-3.423300586291589e-05,9.809646606445312
1717166140790378437,2.564416377026646e-07,-0.00031155298347584903,-1.1432700830482645e-06,1.4364291429519653,4.384811836644076e-05,9.809686660766602
1717166140845788514,5.878118258806353e-07,-0.00031365363975055516,-1.22127437407471e-06,1.5053322315216064,-0.00011176620319020003,9.809722900390625
1717166140895460125,6.018538556418207e-07,-0.0003247688873670995,-1.3139989505361882e-06,1.5904877185821533,8.415205229539424e-05,9.80936050415039
1717166140942316730,-1.925074457176379e-06,-0.0003317213850095868,-1.4005843240738614e-06,1.6694003343582153,4.524102041614242e-05,9.809464454650879
1717166140993605399,5.12016356424283e-07,-5.04552990605589e-05,-1.1517549864947796e-06,1.6157441139221191,-0.00011119349801447242,9.810325622558594
1717166141044756222,5.365839683690865e-07,0.0007624647696502507,-3.401776780265209e-07,0.8755056262016296,4.107655331608839e-05,9.814342498779297
1717166141089636810,5.811007213196717e-07,0.0013832584954798222,2.600276332032081e-07,-0.020082736387848854,3.658813875517808e-05,9.814849853515625
1717166141141491972,-2.605297879654245e-07,0.0016512272413820028,6.287224891821097e-07,-0.6058623194694519,-5.723238245991524e-06,9.812679290771484
1717166141195927319,-2.0550052681755915e-07,0.001649535377509892,8.455804731966055e-07,-0.9591789841651917,-4.67729005322326e-05,9.81054973602295
1717166141239973945,1.0345878109774276e-07,0.0014928844757378101,9.55529571911029e-07,-1.1686903238296509,3.0349607186508365e-05,9.809304237365723
1717166141289306719,-1.3922345942773973e-07,0.001267342478968203,1.0097485301230336e-06,-1.2856007814407349,-9.25037693377817e-06,9.808514595031738
1717166141347113175,-7.606346912325535e-07,0.0010289058554917574,1.0234623459837167e-06,-1.3473939895629883,2.917950041592121e-05,9.808202743530273
1717166141401219974,2.2431741797390714e-07,0.0008052859921008348,1.021635966935719e-06,-1.3703224658966064,-0.00012702273670583963,9.808218955993652
1717166141452156713,-5.84366830480576e-07,0.0006098792073316872,9.981665698433062e-07,-1.3669068813323975,2.9165501473471522e-05,9.808406829833984
1717166141489358788,-5.413872372628248e-07,0.0004466020909603685,9.703373962111073e-07,-1.3646472692489624,2.9314132916624658e-05,9.8085298538208
1717166141544658410,1.0557405403233133e-06,0.0003145005612168461,9.425942835150636e-07,-1.337324857711792,-8.67246762936702e-06,9.808746337890625
1717166141596780674,1.410416246017121e-07,0.00021007553732488304,9.075159255189647e-07,-1.314945101737976,3.0203522328520194e-05,9.80881404876709
1717166141645758552,-1.4120273590378929e-06,0.00012860840070061386,8.72938130669354e-07,-1.2950184345245361,0.00018637027824297547,9.809122085571289
1717166141689608517,1.1567484534680261e-06,6.58459757687524e-05,8.395556392315484e-07,-1.2575602531433105,-0.00016461742052342743,9.809282302856445
1717166141743814930,1.1499230367917335e-06,1.808080378395971e-05,8.088133540695708e-07,-1.2375601530075073,0.00010891595593420789,9.809208869934082
1717166141798618406,-7.003002338024089e-07,9.392436186317354e-05,8.560314199712593e-07,-1.3426283597946167,-4.7708064812468365e-05,9.810266494750977
1717166141839470530,-1.5042311360957683e-06,1.0570892300165724e-05,7.984860417309392e-07,-1.275148868560791,-8.591362529841717e-06,9.809110641479492
1717166141892437410,7.864896645060071e-08,-8.34020902402699e-05,6.416858582269924e-07,-1.1826227903366089,3.0835424695396796e-05,9.809060096740723
1717166141946592464,1.2529119430837454e-07,-0.00018850596097763628,9.993863159252214e-07,-1.067549705505371,-4.653726136893965e-05,9.80917739868164
1717166141995740413,1.1014414269538975e-07,-0.00020934587519150227,4.3179007036542316e-08,-0.9699398875236511,-6.941440460650483e-06,9.809213638305664
1717166142040559209,9.139798180513026e-07,-0.0003066790523007512,4.825145651921048e-07,-0.8773094415664673,3.236602060496807e-05,9.809481620788574
1717166142094406597,-6.749820613549673e-07,-0.00026264015468768775,5.896573043173703e-07,-0.8146684169769287,-4.527147029875778e-05,9.80974292755127
1717166142145309002,-6.335400826174009e-08,-0.0003648281272035092,2.909458203248505e-07,-0.6970115900039673,-5.6709918681008276e-06,9.809545516967773
1717166142190764906,-9.71842837316217e-07,-0.00030182424234226346,4.433102276379941e-07,-0.6293497085571289,3.327067679492757e-05,9.809882164001465
1717166142246140227,-6.226744631021575e-07,-0.00039038865361362696,1.6763281962539622e-07,-0.5241719484329224,-0.00012229019193910062,9.809598922729492
1717166142297088227,1.0067378752864897e-06,-0.0003209369315300137,3.4474845733711845e-07,-0.45650485157966614,0.00011249047383898869,9.810165405273438
1717166142345557491,1.9880529578131245e-07,-0.00041323353070765734,6.241252492600324e-08,-0.34131669998168945,-4.3232230382272974e-05,9.80964183807373
1717166142389473370,1.9043845611577126e-07,-0.0003367350436747074,2.2393855658719986e-07,-0.27613911032676697,-3.763696895475732e-06,9.810125350952148
1717166142440329613,-1.3830109537593671e-06,-0.00041879480704665184,-4.410660991993609e-08,-0.15844573080539703,3.573264984879643e-05,9.8097505569458
1717166142501393675,1.2923071324166813e-07,-0.00034428946673870087,1.1692197432466855e-07,-0.10076810419559479,-4.185468424111605e-05,9.810227394104004
1717166142553160266,2.857256902188965e-07,-0.0004331782693043351,-1.6466691477035056e-07,0.024430477991700172,-2.3352779408014612e-06,9.80968952178955
1717166142589420688,-2.1113466530664482e-08,-0.00035531457979232073,-1.0282806606198847e-08,0.08961855620145798,7.62511626817286e-05,9.810160636901855
1717166142647716291,8.370933528567548e-07,-0.00043335946975275874,-2.6917408035842527e-07,0.20481711626052856,-7.947607082314789e-05,9.809847831726074
1717166142700030943,7.821860208423459e-07,-0.0003595105081330985,-1.096148665169494e-07,0.2700069844722748,3.801530328928493e-05,9.81015682220459
1717166142747400717,-1.1291882628938765e-06,-0.0004437076859176159,-3.727891737526079e-07,0.38771164417266846,-3.974615174229257e-05,9.809757232666016
1717166142790793094,-2.8139530172666127e-07,-0.00037018611328676343,-2.4646513452353247e-07,0.46290460228919983,-4.568182987441105e-07,9.810137748718262
1717166142845771495,6.816903237449878e-07,-0.00044087041169404984,-4.812559950551076e-07,0.5781092643737793,3.918989023077302e-05,9.809807777404785
1717166142896248337,-1.8748548313851643e-07,-0.0003749449970200658,-3.7296769050954026e-07,0.6458033919334412,3.941663453588262e-05,9.810104370117188
1717166142954916238,1.4812330846325494e-06,-0.0004400682228151709,-5.979518959975394e-07,0.7610092163085938,-0.0001551507448311895,9.809765815734863
1717166142991059898,1.2460904486033542e-07,-0.00036964393802918494,-5.016988211536955e-07,0.823701024055481,0.0001185794681077823,9.810133934020996
1717166143044746774,8.036174676817609e-07,-0.00042132133967243135,-6.936126624168537e-07,0.9314009547233582,-3.7123041693121195e-05,9.809633255004883
1717166143096342599,8.183807267414522e-07,-0.0003693245816975832,-6.19720424310799e-07,0.9965893030166626,2.2443105081038084e-06,9.810073852539062
1717166143145447006,2.442608035835292e-07,-0.0003828764602076262,-7.609385761497833e-07,1.0817774534225464,4.189162063994445e-05,9.809804916381836
1717166143189303024,-7.605794394294207e-07,-0.00034196439082734287,-7.779554493936303e-07,1.1369506120681763,-3.621774521889165e-05,9.810009002685547
1717166143247215767,5.234136679632684e-08,2.044417487923056e-05,-4.5722956087956845e-07,1.0345304012298584,2.6164370865444653e-06,9.811037063598633
1717166143289432818,6.268501806516724e-07,0.0006260618101805449,-8.04575517321382e-09,0.36931920051574707,-5.056541567682871e-07,9.81391716003418
1717166143343106275,-9.698480880615534e-07,0.0010144187835976481,2.8071053748135455e-07,-0.21862545609474182,3.567515886970796e-05,9.813234329223633
1717166143397493433,-1.5678567422128253e-07,0.001153652323409915,4.5141413806959463e-07,-0.5691765546798706,-4.4127362343715504e-05,9.811532020568848
1717166143440003590,-1.0820671150213457e-06,0.0011216284474357963,5.485061365106958e-07,-0.789736807346344,-6.3927186602086294e-06,9.810099601745605
1717166143493029521,-1.2408884231263073e-07,0.0009972003754228354,5.977194632578176e-07,-0.9102507829666138,3.224300962756388e-05,9.809274673461914
1717166143547191550,5.928085329287569e-07,0.0008348966366611421,6.1802933259969e-07,-0.9856843948364258,-4.609679672284983e-05,9.809072494506836
1717166143595555788,5.905469606659608e-07,0.0006700552185066044,6.212917469383683e-07,-1.0135395526885986,-7.17088914825581e-06,9.808642387390137
1717166143639506944,-3.3742671234904265e-07,0.0005183675093576312,6.13061331478093e-07,-1.026316523551941,3.152613862766884e-05,9.808847427368164
1717166143696089091,-2.6214340209662623e-07,0.00038682075683027506,5.975391559331911e-07,-1.0215307474136353,3.1410090741701424e-05,9.808825492858887
1717166143745814690,7.830008144082967e-07,0.00027979814331047237,5.834750140820688e-07,-1.0141823291778564,-0.00016365153715014458,9.809202194213867
1717166143790005474,-9.842528925219085e-08,0.0001928215497173369,5.645282499244786e-07,-0.9892920255661011,0.00010989497241098434,9.809117317199707
1717166143841831973,-4.683338872268905e-08,0.000258265295997262,4.976794798494666e-07,-1.1369280815124512,-4.6941338951000944e-05,9.810090065002441
1717166143897101264,-9.423583833267912e-07,0.00013293081428855658,1.0377463013355737e-06,-1.072016716003418,-4.6794357331236824e-05,9.809233665466309
1717166143939930992,7.799227041971335e-09,0.0001542250975035131,7.408596616187424e-07,-1.0995899438858032,3.177464895998128e-05,9.809532165527344
1717166143989321034,5.528571023205586e-08,-4.6410015784204006e-05,3.988590151493554e-07,-0.9870898127555847,-6.808299986005295e-06,9.808853149414062
1717166144045197640,-8.368475050701818e-07,-4.664387597586028e-05,6.185705956340826e-07,-0.9220899343490601,3.253099930589087e-05,9.809491157531738
1717166144097249993,1.193856320469422e-07,-0.00022240194084588438,2.8054378731212637e-07,-0.7994957566261292,-4.5083910663379356e-05,9.808979034423828
1717166144151810452,1.0702485724323196e-06,-0.00018975614511873573,5.342846520761668e-07,-0.7243966460227966,-5.628164217341691e-06,9.809548377990723
1717166144203065858,-1.1395244428058504e-06,-0.0003328570746816695,1.0539229577943843e-07,-0.6017554998397827,3.4127882827306166e-05,9.809346199035645
1717166144243370602,9.103270315335976e-08,-0.00027093617245554924,3.8488079212584125e-07,-0.5391145348548889,-4.3519106839085e-05,9.809911727905273
1717166144296918531,-1.5903162875474663e-06,-0.0003815600648522377,5.427553162462573e-08,-0.4139420688152313,7.358051516348496e-05,9.809626579284668
1717166144350432380,8.94299319043057e-07,-0.0003106170042883605,2.716210190101265e-07,-0.3562801480293274,-0.0001601145340828225,9.809953689575195
1717166144388952711,-6.802522420912283e-07,-0.0004072822048328817,-7.682377400897167e-08,-0.23859724402427673,0.00011370746506145224,9.809739112854004
1717166144445373719,-5.3436991720445803e-08,-0.00032715441193431616,1.8084017483488424e-07,-0.1759248524904251,-4.225760858389549e-05,9.810062408447266
1717166144497300660,1.8677745572404092e-07,-0.0004213512293063104,-1.4325931374514767e-07,-0.05323149636387825,-2.5150031888188096e-06,9.809762001037598
1717166144539439967,-9.25912161164888e-07,-0.0003410532954148948,4.755048621518654e-08,0.004451348911970854,3.667408600449562e-05,9.810235023498535
1717166144590645143,-1.6686444723745808e-06,-0.0004266984760761261,-2.4225289507739944e-07,0.12214469909667969,-4.1097766370512545e-05,9.8096923828125
1717166144648903024,-1.316690116937025e-07,-0.00035022871452383697,-3.78325353267428e-08,0.1873275637626648,-1.6388111134801875e-06,9.810237884521484
1717166144696845190,-1.6468216301745997e-07,-0.0004425608494784683,-3.0584789101339993e-07,0.30503156781196594,3.773764183279127e-05,9.809686660766602
1717166144741708325,-1.1548666378757844e-07,-0.0003639885107986629,-1.2109663316550723e-07,0.3877233564853668,-3.9957645640242845e-05,9.810226440429688
1717166144795452274,-7.908766974651371e-07,-0.00044655567035079,-4.423473853876203e-07,0.5004291534423828,7.753603131277487e-05,9.809743881225586
1717166144847338126,1.5603956171617028e-06,-0.00036852495395578444,-2.429752612442826e-07,0.5606221556663513,-0.000117292016511783,9.810121536254883
1717166144889525305,9.248959713659133e-07,-0.0004497557529248297,-5.66012545277772e-07,0.6933302879333496,3.945780190406367e-05,9.809707641601562
1717166144939851455,8.681203667038062e-07,-0.000364328152500093,-3.5408700682637573e-07,0.7435221076011658,1.0460886414875858e-06,9.810235977172852
1717166144997105973,-1.7573447621543892e-06,-0.0004486795514822006,-6.198956725711469e-07,0.8712279200553894,7.913661102065817e-05,9.809657096862793
1717166145046430398,6.569883339579974e-07,-0.0003739403036888689,-5.205951651987561e-07,0.9339244365692139,-0.00011558834376046434,9.81002140045166
1717166145089106325,6.275461714722042e-07,-0.00045568443601951003,-7.780677151458804e-07,1.0641348361968994,4.165448262938298e-05,9.809588432312012
1717166145143029758,-3.189980759543687e-07,-0.0003744086716324091,-6.334772137961409e-07,1.1243313550949097,8.099704427877441e-05,9.80994701385498
1717166145197849207,-3.719846688454709e-07,-0.00045635434798896313,-8.894235179468524e-07,1.2470418214797974,-7.480118802050129e-05,9.809584617614746
1717166145240052091,-3.4848540053644683e-07,-0.0003888421051669866,-7.916858635326207e-07,1.3172417879104614,4.268358679837547e-05,9.809856414794922
1717166145289029217,-3.3935492638192954e-07,-0.0004733266541734338,-1.0341314009565394e-06,1.4549592733383179,4.321078085922636e-05,9.80932331085205
1717166145348203995,5.894037258258322e-07,-0.00042037240928038955,-9.88613010122208e-07,1.5376756191253662,-0.00015145493671298027,9.809659957885742
1717166145393891907,-3.2096718882712594e-07,-0.0003667316632345319,-1.0320159162802156e-06,1.592867374420166,0.000161156669491902,9.809926986694336
1717166145439542196,-3.431585184898722e-07,-0.00030002370476722717,-1.0785375934574404e-06,1.5880241394042969,-7.325701881200075e-05,9.809903144836426
1717166145499423372,-3.2469040434079943e-07,-0.000268366391537711,-1.1323943454044638e-06,1.625659704208374,-3.3924348826985806e-05,9.809789657592773
1717166145554656614,-1.2458369837986538e-06,-0.0002625414344947785,-1.2059375649187132e-06,1.6832871437072754,8.351926953764632e-05,9.809514999389648
1717166145589481457,5.084318672743393e-07,-0.0002631168463267386,-1.2757324157064431e-06,1.7434170246124268,5.786786914541153e-06,9.809471130371094
1717166145641143755,5.101646252114733e-07,-0.0002702308411244303,-1.3589022955784458e-06,1.808547854423523,-0.0001882226497400552,9.8092679977417
1717166145699533391,-4.698580085005233e-07,-0.0002856370701920241,-1.4491423598883557e-06,1.883684754371643,7.461318091372959e-06,9.809215545654297
1717166145754824778,-5.364615844882792e-07,-0.000306146772345528,-1.554639425194182e-06,1.961332082748413,-3.129381366306916e-05,9.809078216552734
1717166145803154418,-5.235023650129733e-07,-0.0003293507033959031,-1.6664062059135176e-06,2.053989887237549,8.612349483883008e-05,9.809009552001953
1717166145842131706,-4.546777745417785e-07,-0.00034244603011757135,-1.7781675296646426e-06,2.144155740737915,-3.0415350920520723e-05,9.809014320373535
1717166145897582433,4.863937874688418e-07,-0.00035200262209400535,-1.895103309834667e-06,2.221827745437622,4.805748540093191e-05,9.808942794799805
1717166145947905122,5.108692562316719e-07,-0.0003639606002252549,-2.0261491044948343e-06,2.314502000808716,-0.00010610925528453663,9.808782577514648
1717166145997092846,3.75329676671754e-07,-0.00010022200149251148,-1.8162337482863222e-06,2.279618263244629,8.921053085941821e-05,9.809865951538086
1717166146039619701,-6.49870798952179e-07,0.0007919552735984325,-8.776733579907159e-07,1.5418944358825684,6.466156719397986e-06,9.813998222351074
1717166146088491947,-6.509731633741467e-07,0.0016216238727793097,-2.3969768392362312e-08,0.4087199568748474,-3.930389357265085e-05,9.816018104553223
1717166146146022581,3.13293469389464e-07,0.0020299425814300776,5.257357997834333e-07,-0.3872250020503998,3.4156466426793486e-05,9.813782691955566
1717166146196726868,-4.742102817090199e-07,0.002080195350572467,8.550021561859467e-07,-0.8732491731643677,3.1208895961754024e-05,9.811250686645508
1717166146239595354,-2.7528923851605214e-07,0.0019146911799907684,1.0378812476119492e-06,-1.171720027923584,-4.867971074418165e-05,9.809391021728516
1717166146290143605,-7.627701279488974e-07,0.0016464171931147575,1.130082409872557e-06,-1.3350731134414673,-8.858239016262814e-05,9.808272361755371
1717166146346306037,-6.023551577527542e-07,0.0013508426491171122,1.167994128081773e-06,-1.4307835102081299,0.00010686941823223606,9.808011054992676
1717166146395868990,1.969865905948609e-07,0.0010691500501707196,1.1739174397007446e-06,-1.466352939605713,-0.00012746767606586218,9.807845115661621
1717166146440159369,2.492245130270021e-07,0.0008201035670936108,1.152673689830408e-06,-1.4842970371246338,6.802031566621736e-05,9.807931900024414
1717166146491506340,-1.3138445638105622e-06,0.0006107126246206462,1.1280186527073965e-06,-1.4746263027191162,-8.856750355334952e-05,9.808197021484375
1717166146544920845,2.6162152266806515e-07,0.00043972505955025554,1.093120658879343e-06,-1.4598718881607056,2.871521792258136e-05,9.808475494384766
1717166146591719750,-3.485438071493263e-07,0.0003038973081856966,1.0549202897891519e-06,-1.4350391626358032,2.877676706702914e-05,9.8085355758667
1717166146640216094,-2.494122952612088e-07,0.00019810025696642697,1.0162237913391436e-06,-1.4051541090011597,-1.0044661394204013e-05,9.808917999267578
1717166146694887078,4.198139720301697e-07,0.00011534740770002827,9.772909379535122e-07,-1.3802220821380615,-4.872520003118552e-05,9.808993339538574
1717166146745918364,6.079080776544288e-07,0.00013968252460472286,1.0121474360857974e-06,-1.4553006887435913,2.8862563340226188e-05,9.809741973876953
1717166146794114787,3.8541773506040045e-07,2.4285278414026834e-05,9.164370453618176e-07,-1.37533700466156,2.9413045922410674e-05,9.808979034423828
1717166146839368226,-3.4216782296425663e-07,-8.860811067279428e-05,8.170795808837283e-07,-1.265305519104004,0.00010849718091776595,9.8087797164917
1717166146889263618,-3.481064823063207e-07,-0.0001828973036026582,7.30406497950753e-07,-1.155232548713684,-4.7140718379523605e-05,9.809054374694824
1717166146945921370,-5.314512918630498e-07,-0.00025937665486708283,6.398059895218466e-07,-1.040117621421814,3.18606362270657e-05,9.809099197387695
1717166146994306736,-4.3108548197778873e-07,-0.0003202396328561008,5.639993787553976e-07,-0.9299713373184204,3.2050014851847664e-05,9.809453964233398
1717166147039648731,2.573266328909085e-07,-0.0003579886688385159,4.592397147007432e-07,-0.8147989511489868,-4.539785368251614e-05,9.809496879577637
1717166147089827925,-4.185810951184976e-07,-0.00038052338641136885,4.930549835080456e-07,-0.717116117477417,-5.9985591178701725e-06,9.809611320495605
1717166147146358805,-4.362469780971878e-07,-0.00039910507621243596,-2.0041250436975133e-08,-0.6194227933883667,3.3428055758122355e-05,9.80964469909668
1717166147196852246,2.8118614636696293e-07,-0.0004160145472269505,2.282187551827519e-06,-0.5017243027687073,-4.3860116420546547e-05,9.80991268157959
1717166147242581491,5.265934532872052e-07,-0.000413660571211949,-1.3212870726420078e-05,-0.4115152657032013,7.382005424005911e-05,9.809859275817871
1717166147295667032,-1.3456523220156669e-06,-0.0004262423317413777,4.2563671740936115e-05,-0.32131150364875793,-0.0001990983000723645,9.809957504272461
1717166147347504490,2.6226371119264513e-07,-0.00035433974699117243,-1.156571124738548e-05,-0.256123423576355,0.00019169501319993287,9.810205459594727
1717166147396782421,-7.513409627790679e-07,-0.0004078597412444651,1.1983859167230548e-06,-0.1734353005886078,-8.140288991853595e-05,9.80998420715332
1717166147439672275,3.201489278126246e-07,-0.00035779501195065677,-1.6634331245768408e-08,-0.08825242519378662,-2.633121539474814e-06,9.81007194519043
1717166147488645265,8.784662099969864e-07,-0.0004182964621577412,-1.2151882344824116e-07,0.019446149468421936,3.673450191854499e-05,9.80976676940918
1717166147543480492,-6.915851713529264e-08,-0.000372130423784256,-5.987084961134315e-08,0.09963423013687134,-4.088404239155352e-05,9.8102388381958
1717166147601079385,7.439131195496884e-07,-0.0004348669317550957,-2.514960897315177e-07,0.21733802556991577,-1.3887284922020626e-06,9.809691429138184
1717166147638563125,7.423131478390133e-07,-0.0003867515188176185,-1.8288926639797864e-07,0.2925362288951874,3.7992016586940736e-05,9.810077667236328
1717166147694447657,-1.5790305951668415e-07,-0.00042986770858988166,-3.528022887167026e-07,0.40524089336395264,-3.966795338783413e-05,9.80991268157959
1717166147745451482,-8.255772172560683e-07,-0.0003879614232573658,-3.143755691326078e-07,0.47793737053871155,-2.9780130716972053e-07,9.810135841369629
1717166147795242941,-1.3216212835232e-07,-0.0004239499394316226,-4.708712424417172e-07,0.5781396627426147,3.93644004361704e-05,9.809806823730469
1717166147839402493,-1.669431100026486e-07,-0.0003876957925967872,-4.4168717749926145e-07,0.6633361577987671,-3.842658770736307e-05,9.810100555419922
1717166147889442195,-1.7534451899337e-06,-0.00039671570993959904,-5.54757548343332e-07,0.7510302662849426,7.897710747784004e-05,9.809843063354492
1717166147946901998,-1.7587740330782253e-07,-0.0003772264753933996,-5.887628731215955e-07,0.8137174248695374,-7.706454925937578e-05,9.81005573272705
1717166147995331629,8.472500212519662e-07,-0.00037378433626145124,-6.544436246258556e-07,0.9014009833335876,1.8429777810524683e-06,9.80994987487793
1717166148039272259,-1.0277949513692874e-07,-0.00036224021459929645,-7.076485530888021e-07,0.9815810322761536,4.1399707697564736e-05,9.809920310974121
1717166148092116092,-1.7243293370938773e-07,-0.0003533277485985309,-7.761121878502308e-07,1.0442553758621216,-3.5872915759682655e-05,9.809813499450684
1717166148145994976,-1.1680531315505505e-06,-0.00035171303898096085,-8.471793648823223e-07,1.124428391456604,-3.5639921406982467e-05,9.809858322143555
1717166148199006074,5.361118837754475e-07,-0.0003569593245629221,-9.219266416948813e-07,1.2071025371551514,-0.00015240811626426876,9.809741973876953
1717166148239574582,-4.086089973043272e-07,-0.00035644957097247243,-1.0000505881180288e-06,1.2972780466079712,0.00012131614494137466,9.809621810913086
1717166148289051500,-3.4871931120505906e-07,-0.0003543082857504487,-1.072054715223203e-06,1.3599522113800049,-0.0001126504794228822,9.809582710266113
1717166148348776691,5.659781550093612e-07,-0.0003569484397303313,-1.1550828276085667e-06,1.4526265859603882,-3.375762025825679e-05,9.809768676757812
1717166148402078700,4.990619117961614e-07,-7.400922186207026e-05,-9.035518360178685e-07,1.3952319622039795,8.294000144815072e-05,9.810471534729004
1717166148453698259,5.032389367443102e-07,0.0006915857666172087,-1.8963396541948896e-07,0.6925166249275208,1.1723309398803394e-06,9.814275741577148
1717166148504007398,5.78297886022483e-07,0.0012366065056994557,2.916144694609102e-07,-0.11051341146230698,-4.215168519294821e-05,9.81432056427002
1717166148539408145,1.0471519651389372e-08,0.001463267020881176,5.768251298832183e-07,-0.6087039709091187,3.323855344206095e-05,9.812346458435059
1717166148593564257,-1.3103782237067207e-07,0.0014533945359289646,7.510690807066567e-07,-0.9144257307052612,-4.6294320782180876e-05,9.810444831848145
1717166148644923559,-1.0040106417363859e-06,0.0013097410555928946,8.340515478266752e-07,-1.095094084739685,3.081687827943824e-05,9.809208869934082
1717166148698442008,-1.1925210685603815e-07,0.0011084116995334625,8.815815704110719e-07,-1.195673942565918,-8.948578397394158e-06,9.80866813659668
1717166148739724587,-9.286879389946989e-07,0.0008964516455307603,8.895491987459536e-07,-1.2411441802978516,-4.8276600864483044e-05,9.808448791503906
1717166148789865572,5.0869701340161555e-08,0.0006994653376750648,8.798702992862673e-07,-1.261520266532898,2.990092252730392e-05,9.808476448059082
1717166148846157335,5.973402039671782e-08,0.0005276694428175688,8.645490083836194e-07,-1.2668076753616333,-9.090797902899794e-06,9.808517456054688
1717166148895438031,9.845804243013845e-07,0.00038477839552797377,8.394502515329805e-07,-1.2445166110992432,0.00014735206787008792,9.80872917175293
1717166148946195661,-8.139746796587133e-07,0.0002685819345060736,8.132628295243194e-07,-1.2346681356430054,-8.249431630247273e-06,9.808868408203125
1717166148989672948,2.0274022460853303e-08,0.0001770880480762571,7.846036851333338e-07,-1.2072675228118896,-4.7268924390664324e-05,9.809097290039062
1717166149039194266,-8.164715836755931e-07,0.00010582094546407461,7.537755095654575e-07,-1.1823354959487915,3.093613122473471e-05,9.809172630310059
1717166149097194885,1.2968942542102013e-07,5.0974467740161344e-05,7.255806622197269e-07,-1.1623668670654297,3.093888153671287e-05,9.809329986572266
1717166149146605934,-5.143664338902454e-07,9.921416676661465e-06,6.960169685044093e-07,-1.1323668956756592,-4.704233288066462e-05,9.809414863586426
1717166149196877773,4.463398965981469e-07,9.02240353752859e-05,7.504841050831601e-07,-1.2499245405197144,-8.416447599302046e-06,9.8102388381958
1717166149240939212,-4.333769254571962e-07,-1.614122447790578e-05,6.349144996420364e-07,-1.1649243831634521,3.105380164925009e-05,9.809088706970215
1717166149294335298,2.7705087290996744e-07,-5.114766463520937e-05,7.204290568552096e-07,-1.0649243593215942,-4.659187106881291e-05,9.809268951416016
1717166149353668015,1.2255759429535829e-06,-0.0001921092189149931,4.29049180183938e-07,-0.9898406863212585,-7.066008947731461e-06,9.809295654296875
1717166149404707673,-1.270505208594841e-06,-0.00017457149806432426,6.347457883748575e-07,-0.912251889705658,-7.0547293944400735e-06,9.80940055847168
1717166149453338249,1.22665687740664e-06,-0.00031415841658599675,3.1056165994414187e-07,-0.7896212339401245,3.303909034002572e-05,9.809283256530762
1717166149489027319,1.182951450573455e-06,-0.00026140297995880246,5.28531302279589e-07,-0.7194802761077881,-4.4814292778028175e-05,9.80977725982666
1717166149543788979,-4.1462362787569873e-07,-0.00037037229049019516,1.9488237512632622e-07,-0.5968182682991028,-5.3567428039968945e-06,9.80949878692627
1717166149597188990,4.172854630724032e-07,-0.00030071372748352587,4.1039331222236797e-07,-0.5441563129425049,3.4092045098077506e-05,9.80998706817627
1717166149646492633,1.0890042858591187e-06,-0.0004052966251038015,8.77289636491696e-08,-0.42147865891456604,-4.346351124695502e-05,9.809624671936035
1717166149695775758,-5.227198585089354e-07,-0.0003343255666550249,2.7493936727296386e-07,-0.3488010764122009,-4.00648377762991e-06,9.810111045837402
1717166149739447180,-6.166677053442982e-07,-0.00042780477087944746,-3.843259932523324e-08,-0.2286076694726944,3.586497041396797e-05,9.80958366394043
1717166149794197944,1.2063922838478902e-07,-0.0003439807042013854,1.631331372209388e-07,-0.16842485964298248,-4.207292658975348e-05,9.810218811035156
1717166149846371273,-8.594672067374631e-07,-0.00043413881212472916,-1.1918762510276792e-07,-0.04572627693414688,-2.724473688431317e-06,9.80984115600586
1717166149897202694,-1.9959060182372923e-07,-0.0003583695797715336,3.376863588755441e-08,0.01696181297302246,3.6538869608193636e-05,9.810001373291016
1717166149939446851,-1.6789897472335724e-07,-0.0004435594892129302,-2.3423690720392187e-07,0.14466558396816254,-4.091513983439654e-05,9.809926986694336
1717166149990805723,7.488256414944772e-07,-0.0003599572810344398,-6.269141294978908e-08,0.20735369622707367,-1.335577508143615e-06,9.810159683227539
1717166150045487752,-8.139292049236246e-07,-0.000445566198322922,-3.3642785979282053e-07,0.3175607919692993,3.7924204661976546e-05,9.80976390838623
1717166150098611509,-1.5728490154742758e-07,-0.0003707568102981895,-1.811430081488652e-07,0.3977549076080322,-3.959337846026756e-05,9.810068130493164
1717166150151107241,-1.1467900549178012e-06,-0.0004607119190040976,-4.4253812347960775e-07,0.5204654335975647,7.791964890202507e-05,9.809819221496582
1717166150202501452,6.952855073905084e-07,-0.00039039793773554265,-3.017626966084208e-07,0.6006689071655273,-0.0001560383680043742,9.810115814208984
1717166150239845329,-1.1247900033595215e-07,-0.0004689972847700119,-5.735073500545695e-07,0.7308863401412964,0.00011825137335108593,9.809621810913086
1717166150289394769,-8.235528525801783e-07,-0.00039019662654027343,-4.4520689357341325e-07,0.7885910868644714,4.011302735307254e-05,9.810225486755371
1717166150349517294,-9.289092162134693e-08,-0.00046496736467815936,-6.871541131658887e-07,0.921307384967804,-7.64603610150516e-05,9.809642791748047
1717166150404259379,8.2424884340071e-07,-0.0004053540469612926,-6.035501769474649e-07,0.9940144419670105,-3.679142173496075e-05,9.810003280639648
1717166150438997651,1.6990776430247934e-07,-0.00047538717626594007,-8.261141601906274e-07,1.1242376565933228,4.1965991840697825e-05,9.809566497802734
1717166150494833643,-1.4419281058053457e-07,-0.00011116672976640984,-4.52664863814789e-07,1.0643771886825562,2.447629412927199e-06,9.810891151428223
1717166150546957705,8.071774004747567e-07,0.0004933459567837417,-4.649111673415973e-08,0.43423032760620117,3.887142156600021e-05,9.813908576965332
1717166150589857114,-1.6262742974504363e-06,0.0008978081168606877,2.19163908354858e-07,-0.12865236401557922,-4.209460530546494e-05,9.81322193145752
1717166150645493270,-8.312781574204564e-07,0.0010572884930297732,3.773302807985601e-07,-0.4891531467437744,-4.6329901124408934e-06,9.81168270111084
1717166150697357605,-8.968538622866618e-07,0.0010455172741785645,4.659598289435962e-07,-0.6946725249290466,3.342242416692898e-05,9.810257911682129
1717166150747502516,-1.811479023672291e-06,0.0009382102289237082,5.128046609570447e-07,-0.8251515030860901,-6.755505182809429e-06,9.809441566467285
1717166150789200693,-1.05485901258362e-06,0.0007914922316558659,5.324062044564926e-07,-0.8955642580986023,-8.505086589138955e-05,9.809089660644531
1717166150839370894,8.526597525815305e-07,0.0006387597532011569,5.362089154914429e-07,-0.923403799533844,7.101926166797057e-05,9.808821678161621
1717166150898375851,-5.729232839257747e-07,0.0004961483064107597,5.312263624546176e-07,-0.93867027759552,-4.6025390474824235e-05,9.808873176574707
1717166150953213371,7.543849278590642e-08,0.00037318404065445065,5.194184495849186e-07,-0.9363741278648376,-6.908854174980661e-06,9.809088706970215
1717166151004282215,-6.307922149062506e-07,0.00027094228425994515,5.029260705669003e-07,-0.929020345211029,-6.655443939962424e-06,9.809075355529785
1717166151055130299,-8.05186104457789e-08,0.00018783706764224917,4.897034955320123e-07,-0.9091249108314514,3.2368177926400676e-05,9.809303283691406
1717166151092700703,7.997717830221518e-07,0.00012251149746589363,4.703365732439124e-07,-0.899198055267334,-4.5976517867529765e-05,9.809298515319824
1717166151147421483,-9.044577495842532e-07,7.128762808861211e-05,4.5463269771062187e-07,-0.8767399191856384,-6.822318482591072e-06,9.809453964233398
1717166151197051609,2.63867889316316e-07,3.275811832281761e-05,4.384509395549685e-07,-0.8567607998847961,3.252658643759787e-05,9.809612274169922
1717166151248312742,5.522686308268021e-08,3.609463192333351e-06,4.2289354951208225e-07,-0.8367608189582825,-4.550255471258424e-05,9.809694290161133
1717166151288732627,-6.362639055623731e-07,-1.867511309683323e-05,4.0678469304111786e-07,-0.8242607712745667,-4.5442597183864564e-05,9.809539794921875
1717166151342976180,-5.828551934428106e-07,0.00021526918862946332,2.9199616946584683e-08,-0.9718237519264221,3.190720235579647e-05,9.810835838317871
1717166151398466855,-5.937365585850785e-07,0.00023043864348437637,4.3975794028483506e-07,-1.1319386959075928,-7.3483874984958675e-06,9.810480117797852
1717166151448422725,8.867228729059207e-08,0.00022373451793100685,7.406483177874179e-07,-1.167053461074829,3.148862379021011e-05,9.809834480285645
1717166151490367627,1.0381003221482388e-06,-1.911789513542317e-05,2.9004939960941556e-07,-1.0020846128463745,-4.58261274616234e-05,9.808537483215332
1717166151542387809,2.1312075659807306e-07,-5.48274110769853e-05,5.7443094192422e-07,-0.899563729763031,-6.457261861214647e-06,9.80910873413086
1717166151597217796,-4.15356765870456e-07,-0.00023768348910380155,1.5844882739202149e-07,-0.7694749236106873,3.346118683111854e-05,9.80898666381836
1717166151652147448,1.1240565527259605e-06,-0.00022647669538855553,5.061795036453987e-07,-0.681860089302063,-4.42870550614316e-05,9.809480667114258
1717166151704539580,-1.3591302376880776e-06,-0.000360403792001307,4.583353430120951e-08,-0.5467085242271423,-4.792290383193176e-06,9.809358596801758
1717166151753972454,3.6245134538148704e-07,-0.000320697930874303,4.4395397935659275e-07,-0.4615413546562195,3.4631222661118954e-05,9.809771537780762
1717166151789371461,3.0967797215453174e-07,-0.00042244233191013336,-1.45283109986849e-07,-0.33385324478149414,-4.2861847759922966e-05,9.809563636779785
1717166151847300326,-6.588394967366185e-07,-0.00035673758247867227,3.66742227697614e-07,-0.26366519927978516,-3.6999431358708534e-06,9.810047149658203
1717166151896950233,8.115261351804293e-09,-0.0004463182995095849,-1.5995239266430872e-07,-0.1359613835811615,3.5941902751801535e-05,9.809752464294434
1717166151938726103,4.781163198686045e-08,-0.00037203554529696703,3.120754286101146e-07,-0.06576810032129288,-4.1872499423334375e-05,9.810152053833008
1717166151995047420,-1.1016764389637501e-08,-0.00045224366476759315,-1.7890648962293199e-07,0.05194091796875,-2.4545961423427798e-06,9.809846878051758
1717166152046352305,6.055387302694726e-08,-0.0003786237211897969,-1.7067225144273834e-07,0.12963946163654327,-1.9608830825745827e-06,9.810083389282227
1717166152098092691,6.718554601548021e-08,-0.00046719162492081523,-3.02549779007677e-07,0.252353698015213,3.7550486013060436e-05,9.809847831726074
1717166152139592790,1.0401644345847672e-07,-0.00038943433901295066,2.3022379025405826e-07,0.3275584578514099,-4.0176251786760986e-05,9.810076713562012
1717166152188959743,-5.274680461297976e-07,-0.0004682703292928636,-4.797892643182422e-07,0.4527747929096222,-6.225988613550726e-07,9.809831619262695
1717166152245101952,1.0433786883368157e-06,-0.0003911927924491465,-6.815535869009182e-08,0.5229794383049011,3.884698526235297e-05,9.810131072998047
1717166152295342938,-5.143540988683526e-07,-0.00047664105659350753,-4.440656482529448e-07,0.6481993198394775,-3.885300611727871e-05,9.809798240661621
1717166152351917358,1.0530098961680778e-06,-0.00040552119025960565,-3.3187043868565524e-07,0.7284097671508789,8.141843750308908e-07,9.809932708740234
1717166152401330995,-1.3703670198594864e-08,-0.000493015453685075,-7.266855845955433e-07,0.8661378622055054,4.063894084538333e-05,9.809822082519531
1717166152441156533,7.244141215778654e-07,-0.00041272654198110104,-3.615127468492574e-07,0.9413530826568604,-3.7440582673298195e-05,9.809948921203613
1717166152503474423,-2.4808045395730005e-07,-0.0004869637486990541,-6.798804292884597e-07,1.069079875946045,1.979345825020573e-06,9.809672355651855
1717166152551420093,-2.3085344480477943e-07,-0.0004033840377815068,-4.6475594217554317e-07,1.1242915391921997,4.190500112599693e-05,9.810029983520508
1717166152590209649,-2.8024371090396016e-07,-0.0004772964457515627,-8.003022458069609e-07,1.264512538909912,3.2752100196375977e-06,9.809584617614746
1717166152639189402,-2.2947529032535385e-07,-0.00036801310488954186,-6.328777431008348e-07,1.2997138500213623,4.253138104104437e-05,9.810020446777344
1717166152694921848,-1.9330943246131937e-07,-0.0004208165337331593,-9.358952297588985e-07,1.397410273551941,-0.00011309933324810117,9.809736251831055
1717166152746429522,-2.2692205448038294e-07,-0.00032671052031219006,-7.716814138802874e-07,1.4250844717025757,4.332458775024861e-05,9.809782028198242
1717166152791757068,-2.7865371521329507e-07,-0.00040190498111769557,-1.0788075996970292e-06,1.5502703189849854,4.3946194637101144e-05,9.809563636779785
1717166152844996405,-3.745401784271962e-07,-0.0003278431831859052,-9.195996995003952e-07,1.590442180633545,4.396699296194129e-05,9.809602737426758
1717166152894567371,-3.7311997402866837e-07,-0.0004239858244545758,-1.1923885949727264e-06,1.7256338596343994,-7.261314749484882e-05,9.809292793273926
1717166152939974695,-3.468745148893504e-07,-0.0003801051352638751,-1.1466415799077367e-06,1.8158292770385742,-3.300458047306165e-05,9.80922794342041
1717166152993604690,-3.57248779891961e-07,-1.5433799489983357e-05,-8.496202212882054e-07,1.6984232664108276,4.4531050662044436e-05,9.810892105102539
1717166153046498034,5.52627852812293e-07,0.0008218401926569641,-2.278789708043405e-07,0.8531414866447449,7.951258157845587e-05,9.81480598449707
1717166153098445661,-2.9894363251514733e-07,0.0013145204866304994,1.200658061861759e-07,0.09256567060947418,-8.038615487748757e-05,9.814117431640625
1717166153139497659,-1.8009499171967036e-06,0.0014888670993968844,3.329782316541241e-07,-0.358146071434021,-4.507574885792565e-06,9.811943054199219
1717166153194564431,-1.096364528052618e-07,0.0014465833082795143,4.5239542600938876e-07,-0.6413702964782715,3.3267901017097756e-05,9.810074806213379
1717166153244632391,9.386014312440238e-07,0.0012878415873274207,5.181961455491546e-07,-0.8095299005508423,-8.458274533040822e-05,9.809258460998535
1717166153296591057,-7.557529215773684e-07,0.0010834982385858893,5.545273324969457e-07,-0.8900940418243408,3.21289298881311e-05,9.808663368225098
1717166153347930449,-4.498660075569205e-07,0.0008750497945584357,5.629169663734501e-07,-0.9480590224266052,-7.079882379912306e-06,9.808539390563965
1717166153389704743,2.3556225414722576e-07,0.0006846164469607174,5.621608920591825e-07,-0.9634246826171875,-6.998619483056245e-06,9.808581352233887
1717166153441480050,-6.847332088000257e-07,0.0005196371930651367,5.509814400284085e-07,-0.9687068462371826,3.18999336741399e-05,9.808709144592285
1717166153494078956,-1.3439082522381796e-06,0.0003835997194983065,5.380695142775949e-07,-0.9639158248901367,-4.620902836904861e-05,9.808923721313477
1717166153545501699,2.394332909716468e-07,0.0002738844195846468,5.217430611992313e-07,-0.9490674138069153,-6.963411578908563e-06,9.809067726135254
1717166153589188594,-6.271270649449434e-07,0.00018702659872360528,5.059770273874165e-07,-0.9341719150543213,3.20430553983897e-05,9.809138298034668
1717166153639386056,-1.290181785407185e-06,0.00011985360470134765,4.877138053416274e-07,-0.9142398238182068,-4.596227881847881e-05,9.809369087219238
1717166153703953604,1.2257354455869063e-06,6.802604184485972e-05,4.711769179266412e-07,-0.8917816877365112,-6.607821887882892e-06,9.809447288513184
1717166153750742865,3.4879641930274374e-07,2.9319990062504075e-05,4.515297291618481e-07,-0.8768026232719421,3.243748506065458e-05,9.80960464477539
1717166153790430454,-2.895517354772892e-07,-9.240501697149739e-08,4.33812544997636e-07,-0.8518025875091553,-4.556767089525238e-05,9.809609413146973
1717166153847194048,5.519623300642706e-07,-2.1844061848241836e-05,4.1646379145277024e-07,-0.8318026065826416,-6.409299658116652e-06,9.809613227844238
1717166153896724417,-2.954350861728017e-07,-3.7789835914736614e-05,4.0142126067621575e-07,-0.816781759262085,3.266214480390772e-05,9.809852600097656
1717166153945766254,6.070608264963084e-07,-4.9353224312653765e-05,3.881415011619538e-07,-0.7967607975006104,-4.510688086156733e-05,9.809700965881348
1717166153989163353,2.5678718884591945e-07,-5.697674350813031e-05,3.719152346093324e-07,-0.7792347073554993,-5.9165099628444295e-06,9.809784889221191
1717166154041736283,1.0391548954657992e-07,-6.282490357989445e-05,3.5926842656408553e-07,-0.7592033743858337,-4.50675688625779e-05,9.809868812561035
1717166154095285113,1.1993208204330585e-07,0.0003053504624404013,-8.232170785049675e-07,-0.9242557883262634,3.217703851987608e-05,9.810929298400879
1717166154145830415,4.2767788954733987e-07,0.0003292654291726649,4.149067649450444e-07,-1.221917986869812,3.156116872560233e-05,9.811245918273926
1717166154189658239,1.373139184579486e-07,0.00032489452860318124,6.739505806763191e-07,-1.2695847749710083,-4.6901019231881946e-05,9.809887886047363
1717166154242184189,-5.792508659396844e-07,6.66787673253566e-05,2.5865529096336104e-07,-1.102157711982727,-7.141393325582612e-06,9.808429718017578
1717166154297931565,9.405793548467045e-07,-5.083024007035419e-06,4.4736759718944086e-07,-0.9921576976776123,3.2389718398917466e-05,9.808845520019531
1717166154345478671,9.356695613860211e-07,-0.00020384231174830347,-7.544121771729806e-09,-0.844600260257721,-4.5100736315362155e-05,9.808804512023926
1717166154391341528,6.881135306002761e-08,-0.00020778414909727871,7.084803996804112e-07,-0.7494959235191345,-5.74931664232281e-06,9.809457778930664
1717166154445391568,9.781101084627153e-08,-0.00033736537443473935,1.0065255651170446e-07,-0.6293547749519348,-5.159383817954222e-06,9.809179306030273
1717166154501343352,8.7610011689776e-08,-0.00029871490551158786,-3.1274961997951323e-07,-0.5466981530189514,3.4447864891262725e-05,9.80982780456543
1717166154554729751,-5.955355959486042e-07,-0.0004088754940312356,-5.650596790474083e-07,-0.42401522397994995,-4.318318678997457e-05,9.809544563293457
1717166154594443190,1.065026999924612e-08,-0.00034422072349116206,3.974345418100711e-06,-0.3363376259803772,-3.806890163104981e-06,9.810032844543457
1717166154652376959,-9.704702961244038e-07,-0.0004428840766195208,2.3156330826168414e-06,-0.22113379836082458,3.572859350242652e-05,9.80958366394043
1717166154703472077,6.935158012311149e-07,-0.0003640500654000789,-4.24837926402688e-05,-0.14344576001167297,0.00015330150199588388,9.81014347076416
1717166154746129290,-5.306894763634773e-07,-0.00046277284855023026,-4.3367799662519246e-05,-0.018231503665447235,-0.0002760421484708786,9.809843063354492
1717166154804323506,3.171055027451075e-07,-0.00037228784640319645,0.0007399528403766453,0.05196179822087288,-0.0010967099806293845,9.810081481933594
1717166154839604960,-7.704707059019711e-06,-0.0005189210642129183,0.0013446263037621975,0.18969158828258514,0.005313781090080738,9.809615135192871
1717166154897827799,2.6270308808307163e-05,-0.0010756028350442648,0.004061869811266661,0.6676031351089478,-0.01889578253030777,9.807494163513184
1717166154953417849,-1.9748826161958277e-05,-0.000326384644722566,-0.008141916245222092,0.5853639841079712,0.04525264352560043,9.812009811401367
1717166154989982863,1.0224256584479008e-05,-0.0010767974890768528,0.0008884072885848582,0.9907782673835754,-0.026406660676002502,9.807890892028809
1717166155041808976,-1.3179272173147183e-05,-0.00016255521040875465,-0.008420692756772041,0.5859268307685852,0.01860330067574978,9.813382148742676
1717166155097554887,-1.1936754162888974e-05,-0.0006752613699063659,0.0056196884252130985,0.9086765050888062,-0.031097842380404472,9.808955192565918
1717166155150396753,8.884980928769437e-08,-2.2841371901449747e-05,-0.009157033637166023,0.6737533807754517,0.030654456466436386,9.81163215637207
1717166155190556406,-1.5165303921094164e-05,-0.0005910169566050172,0.006013799458742142,0.9864773154258728,-0.03580133244395256,9.808525085449219
1717166155243827744,1.8088488786816015e-06,-3.212340016034432e-05,-0.008507722057402134,0.8715558648109436,0.030768847092986107,9.811111450195312
1717166155297893970,-7.867218300816603e-06,-0.0005747512332163751,0.005218369886279106,1.1393014192581177,-0.03641824424266815,9.808465003967285
1717166155339757075,4.330059255153174e-06,-0.0001409283431712538,-0.007790877018123865,1.0518896579742432,0.028008604422211647,9.810811996459961
1717166155389376856,-7.94807965576183e-06,-0.0005115325911901891,0.005567857529968023,1.2896337509155273,-0.03348229452967644,9.808786392211914
1717166155446179223,-9.30171700019855e-06,-0.0002352029550820589,-0.010614504106342793,1.2197240591049194,0.03181803971529007,9.810502052307129
1717166155496932789,1.3419848983176053e-05,-0.00011296825687168166,0.009849864058196545,1.0973496437072754,-0.05155815929174423,9.810914039611816
1717166155540093787,3.4292474992980715e-06,-0.00020793898147530854,-0.009166894480586052,1.20735502243042,0.043481405824422836,9.809393882751465
1717166155589249380,1.4811116670898627e-05,-0.00030621563200838864,0.008385840803384781,1.3825618028640747,-0.04120302572846413,9.808707237243652
1717166155643496089,4.240836460667197e-06,-0.00037837011041119695,-0.0074732955545187,1.522672176361084,0.03757941350340843,9.809347152709961
1717166155696057228,7.934364475659095e-06,-0.00043349110637791455,0.0063153598457574844,1.650435209274292,-0.03307380527257919,9.808887481689453
1717166155747387452,2.7211419819650473e-06,-0.0004935340257361531,-0.004406722262501717,1.7906173467636108,0.02691282518208027,9.809192657470703
1717166155790601290,4.0340823943552095e-06,-0.0005210308590903878,0.0016999616054818034,1.9509104490280151,-0.017209889367222786,9.808856010437012
1717166155842681034,1.1127250445497339e-06,-0.0004454588342923671,-0.0003343837452121079,2.011124610900879,0.007474193815141916,9.809725761413574
1717166155898766004,1.8508121684135403e-06,-0.0003454996331129223,3.4461423638276756e-05,1.9938170909881592,-0.0020357107277959585,9.80969524383545
1717166155939352134,3.180929013524292e-07,-0.0002719365293160081,-3.023160616066889e-06,2.001457691192627,0.0005112047074362636,9.809974670410156
1717166155990712735,2.1769298541585158e-07,-0.00023464065452571958,-1.4022464256413514e-06,2.021578550338745,-0.0002527291071601212,9.809395790100098
1717166156045509689,1.210914206239977e-06,-0.0002292093849973753,-1.514349719400343e-06,2.0641915798187256,0.00013424683129414916,9.809197425842285
1717166156103820482,4.391986010432447e-07,-0.0002443416742607951,-1.609339278729749e-06,2.1393063068389893,4.015666854684241e-05,9.80898380279541
1717166156155598733,1.261668217011902e-06,-0.0002688762324396521,-1.7213543515026686e-06,2.2069361209869385,-2.1000198103138246e-05,9.808847427368164
1717166156189522716,-5.4351069422864384e-08,-1.166042511613341e-05,-1.5043569874251261e-06,2.1670079231262207,-1.4874720363877714e-05,9.80986499786377
1717166156253024488,5.683140216206084e-07,0.0008732212590985,-6.381397952281986e-07,1.4092369079589844,-1.4282457414083183e-05,9.814080238342285
1717166156303775110,6.465871820182656e-07,0.0015898249112069607,1.8412864122296924e-08,0.34605956077575684,6.571649464603979e-06,9.815500259399414
1717166156344497090,2.1507617020688485e-07,0.0019091007998213172,4.225611007768748e-07,-0.33483999967575073,-4.730308864964172e-05,9.812904357910156
1717166156399289127,3.9229374237947923e-07,0.0019165423000231385,6.609323577322357e-07,-0.7532880306243896,7.70732294768095e-05,9.81106948852539
1717166156449201433,-3.609230816437048e-07,0.0017426582053303719,7.96574056494137e-07,-1.0041759014129639,-5.1094426453346387e-05,9.809147834777832
1717166156489203605,-2.4225812467193464e-07,0.0014877506764605641,8.666693815939652e-07,-1.1524490118026733,2.2304890080704354e-05,9.808365821838379
1717166156550099245,-9.913603662425885e-07,0.0012147004017606378,8.944618343775801e-07,-1.2280906438827515,-3.953534542233683e-05,9.808208465576172
1717166156597321701,-6.902427571731096e-07,0.0009577234159223735,8.953653605203726e-07,-1.2536026239395142,-2.0951310943928547e-05,9.807984352111816
1717166156639293870,2.982493469971814e-07,0.0007338311988860369,8.840846703606076e-07,-1.2789945602416992,7.568821456516162e-05,9.808243751525879
1717166156693361715,-5.613388793790364e-07,0.0005457841325551271,8.621296956334845e-07,-1.2667922973632812,-3.1244231649907306e-05,9.80851936340332
1717166156747625194,6.593500501139715e-08,0.0003942861221730709,8.376362643502944e-07,-1.2545117139816284,-5.994643288431689e-05,9.808650016784668
1717166156789509009,9.690234037407208e-07,0.000272287055850029,8.086157095021917e-07,-1.222163438796997,0.00012320517271291465,9.808637619018555
1717166156841794619,-1.510710262664361e-06,0.00017835375911090523,7.778400572533428e-07,-1.2147626876831055,-6.595126615138724e-05,9.80925178527832
1717166156896727179,-8.598910312684893e-07,0.00010551296873018146,7.494915053030127e-07,-1.1748253107070923,6.037323146301787e-06,9.809020042419434
1717166156947189140,6.308810185373659e-08,5.083607175038196e-05,7.219206281661172e-07,-1.1573619842529297,-1.869889092631638e-05,9.809487342834473
1717166156989664107,1.408468932595497e-07,8.869177690939978e-06,6.928376592441055e-07,-1.1298619508743286,4.306713890400715e-05,9.809182167053223
1717166157042461591,2.0507330589225603e-07,-2.211984792666044e-05,6.645601047239325e-07,-1.1023621559143066,-1.2354616046650335e-05,9.809735298156738
1717166157092972650,1.7961883713724092e-07,7.824923523003235e-05,7.27916585674393e-07,-1.2274092435836792,-3.653308158391155e-05,9.810246467590332
1717166157147872042,-7.819540996933938e-07,-3.441390072111972e-05,6.289456564445572e-07,-1.1574089527130127,2.1220419512246735e-05,9.809326171875
1717166157198119651,9.197299277730053e-08,-3.3563053875695914e-05,6.877230589452665e-07,-1.0649091005325317,5.8474804973229766e-05,9.809192657470703
1717166157248206896,1.4525932101605576e-07,-0.0001801179168978706,4.223786334023316e-07,-0.9973253607749939,-4.22748489654623e-05,9.80937385559082
1717166157289178845,-6.792537305955193e-07,-0.00015151634579524398,6.288740337367926e-07,-0.9197468757629395,-9.557099838275462e-05,9.809399604797363
1717166157339525124,2.745658491676295e-07,-0.0002913001226261258,3.246267112899659e-07,-0.8146268129348755,-8.674842320033349e-06,9.809432983398438
1717166157396306992,-4.186045430287777e-07,-0.00024300695804413408,5.282830670694239e-07,-0.7395015358924866,0.00013135439075995237,9.809615135192871
1717166157446752234,-7.962323138599459e-07,-0.000366926979040727,2.00584182152852e-07,-0.6068392992019653,6.2271024034998845e-06,9.80949592590332
1717166157497849502,-5.891810701541544e-07,-0.0002952641516458243,4.167833651536057e-07,-0.5616826415061951,-7.386593642877415e-05,9.809904098510742
1717166157540732678,6.037616628873366e-08,-0.0003968896344304085,1.0233162583972444e-07,-0.43650493025779724,-1.0024995390267577e-05,9.809699058532715
1717166157601488357,8.014914953946572e-08,-0.0003195383760612458,2.7207971697862376e-07,-0.3763377368450165,-3.8458616472780704e-05,9.810027122497559
1717166157647584701,9.736313586472534e-07,-0.00042057273094542325,-3.307608054115008e-08,-0.2536444365978241,0.0001017099930322729,9.809736251831055
1717166157697502920,-5.953094728283759e-07,-0.0003463493485469371,2.0059384553405835e-07,-0.18346139788627625,-0.00011389652354409918,9.810060501098633
1717166157739127241,-1.0357251056802852e-08,-0.00043913564877584577,-1.1671821198433463e-07,-0.05826295539736748,0.00010627828305587173,9.809761047363281
1717166157793177692,-3.177328267156554e-08,-0.00035453613963909447,4.802195263664544e-08,0.0019251941703259945,3.847612606477924e-05,9.81015682220459
1717166157848583673,8.763333312344912e-07,-0.0004433340218383819,-2.296291938819195e-07,0.11712917685508728,-0.00013994768960401416,9.809770584106445
1717166157897549849,2.694830847360663e-08,-0.0003672929888125509,-4.3816928751994055e-08,0.19981712102890015,4.535038533504121e-05,9.8102388381958
1717166157940227008,-7.858601236421237e-08,-0.00045177797437645495,-3.2396960136793496e-07,0.31002819538116455,-5.921859701629728e-05,9.809686660766602
1717166157990167112,7.330677931349783e-07,-0.000367034605005756,-1.7423413112283015e-07,0.38022226095199585,7.676891254959628e-05,9.810226440429688
1717166158046326243,6.385372444128734e-07,-0.0004521985538303852,-4.5153183236834593e-07,0.5054293274879456,2.357514858886134e-05,9.809822082519531
1717166158100538042,5.252092591945257e-07,-0.00037655653432011604,-2.7678248670781613e-07,0.5681270956993103,-8.123681618599221e-05,9.810042381286621
1717166158150929752,-3.435530686601851e-07,-0.0004661974380724132,-5.510422624865896e-07,0.703341007232666,2.99702696793247e-05,9.809783935546875
1717166158203027360,5.762979071732843e-07,-0.00039604073390364647,-4.143615797147504e-07,0.7710457444190979,7.779940460750367e-06,9.809996604919434
1717166158245389148,-3.378142139354168e-07,-0.00047492198063991964,-6.741330480508623e-07,0.9137668013572693,-3.106353324255906e-05,9.809647560119629
1717166158297629790,5.579510116149322e-07,-0.000395873881643638,-5.540791789826471e-07,0.9739726185798645,1.8561826436780393e-05,9.810089111328125
1717166158353585012,-9.927786237540204e-08,-0.0004717149131465703,-8.106281939035398e-07,1.091691493988037,-4.067876216140576e-05,9.809656143188477
1717166158406380191,4.2501201846789627e-07,-0.0004218170652166009,-7.265198860295641e-07,1.1844063997268677,0.00011384830577298999,9.809770584106445
1717166158456468349,-1.2479135875764769e-06,-0.0004847294476348907,-9.349166703032097e-07,1.3271381855010986,-0.0001195271106553264,9.809555053710938
1717166158490338042,2.298357912877691e-07,-0.0004115811316296458,-8.981085102277575e-07,1.3898497819900513,4.9235703045269474e-05,9.80982494354248
