#timestamp [ns],w_RS_S_x [rad s^-1],w_RS_S_y [rad s^-1],w_RS_S_z [rad s^-1],a_RS_S_x [m s^-2],a_RS_S_y [m s^-2],a_RS_S_z [m s^-2]
1717170240434094393,0.0,0.0,0.0,3.758565431505076e-37,1.7632416383373084e-37,9.8100004196167
1717170240496632810,-2.7330315788276494e-06,-1.8087047237713705e-06,4.711613321717323e-10,-1278.97314453125,-599.9999389648438,-1035.100341796875
1717170240514807904,-1.723450395729742e-06,-5.605017463494733e-07,1.312878694648134e-10,-0.00015624999650754035,-7.812499825377017e-05,13.744062423706055
1717170240532302316,4.803144975085161e-07,-1.4989235808116064e-07,-1.3362100315106318e-10,0.0,7.812499825377017e-05,12.409844398498535
1717170240585886135,-3.8935503710035846e-08,-4.4738854398929107e-07,-5.7236111683511837e-11,0.0,0.0,11.518516540527344
1717170240633889081,1.5434920896950644e-07,-3.359247955359024e-07,-1.0976275444107841e-10,0.0,0.0,10.9291410446167
1717170240687816568,2.680652357867075e-07,-2.714914728585427e-07,-1.4638959489055026e-10,0.0,0.0,10.54117202758789
1717170240740762599,-4.820082040168927e-07,1.633045627613683e-07,-1.131170712653784e-10,0.0,0.0,10.286328315734863
1717170240793348295,5.283844188852527e-07,-1.7814882369293628e-07,-5.3082017947847504e-11,0.0,0.0,10.119375228881836
1717170240847205079,6.684157369818422e-07,-1.4518062130264298e-07,-4.853747265221031e-11,0.0,0.0,10.010625839233398
1717170240891095257,8.216501328206505e-07,-1.1856136694632369e-07,2.3045287900202993e-11,0.0,0.0,9.93960952758789
1717170240932039749,-7.796365220080759e-10,-4.457485829334473e-07,-1.063332755180113e-10,0.0,0.0,9.893750190734863
1717170240984914708,9.075009188563854e-07,-4.7881417941653126e-08,-4.8539505748124157e-11,0.0,0.0,9.863750457763672
1717170241039625872,-5.595233005806222e-07,-1.1772709029855832e-08,-1.5104251183117867e-10,0.0,7.812499825377017e-05,9.844687461853027
1717170241089183391,0.0,0.0,0.0,0.0,-7.812499825377017e-05,9.87109375
1717170241139658152,0.0,0.0,0.0,0.0,0.0,9.8100004196167
1717170241184911656,0.0,0.0,0.0,0.0,0.0,9.8100004196167
1717170241232916193,0.0,0.0,0.0,0.0,0.0,9.8100004196167
1717170241283222412,0.0,0.0,0.0,0.0,0.0,9.8100004196167
1717170241341227726,0.0,0.0,0.0,0.0,0.0,9.8100004196167
1717170241389296467,0.0,0.0,0.0,0.0,0.0,9.8100004196167
1717170241432379708,0.0,0.0,0.0,0.0,0.0,9.8100004196167
1717170241484251310,0.0,0.0,0.0,0.0,0.0,9.8100004196167
1717170241537714506,0.0,0.0,0.0,0.0,0.0,9.8100004196167
1717170241590618659,0.0,0.0,0.0,0.0,0.0,9.8100004196167
1717170241641671009,0.0,0.0,0.0,0.0,0.0,9.8100004196167
1717170241690809320,0.0,0.0,0.0,0.0,0.0,9.8100004196167
1717170241731385080,0.0,0.0,0.0,0.0,0.0,9.8100004196167
1717170241790465558,0.0,0.0,0.0,0.0,0.0,9.8100004196167
1717170241839076204,0.0,0.0,0.0,0.0,0.0,9.8100004196167
1717170241894102940,0.0,0.0,0.0,0.0,0.0,9.8100004196167
1717170241931097120,0.0,0.0,0.0,0.0,0.0,9.8100004196167
1717170241981671780,0.0,0.0,0.0,0.0,0.0,9.8100004196167
1717170242032658693,0.0,0.0,0.0,0.0,0.0,9.8100004196167
1717170242089976510,0.0,0.0,0.0,0.0,0.0,9.8100004196167
1717170242131609877,0.0,0.0,0.0,0.0,0.0,9.8100004196167
1717170242182893640,0.0,0.0,0.0,0.0,0.0,9.8100004196167
1717170242232666596,0.0,0.0,0.0,0.0,0.0,9.8100004196167
1717170242288032686,0.0,0.0,0.0,0.0,0.0,9.8100004196167
1717170242338022211,0.0,0.0,0.0,0.0,0.0,9.8100004196167
1717170242389041153,0.0,0.0,0.0,0.0,0.0,9.8100004196167
1717170242438701167,0.0,0.0,0.0,0.0,0.0,9.8100004196167
1717170242481884708,0.0,0.0,0.0,0.0,0.0,9.8100004196167
1717170242538839726,0.0,0.0,0.0,0.0,0.0,9.8100004196167
1717170242581811783,0.0,0.0,0.0,0.0,0.0,9.8100004196167
1717170242633536678,0.0,0.0,0.0,0.0,0.0,9.8100004196167
1717170242686756079,0.0,0.0,0.0,0.0,0.0,9.8100004196167
1717170242741200056,0.0,0.0,0.0,0.0,0.0,9.8100004196167
1717170242796459459,0.0,0.0,0.0,0.0,0.0,9.8100004196167
1717170242847710696,1.394108721797238e-06,1.883929279244967e-08,8.475747881320217e-12,0.0,0.0,9.554922103881836
1717170242883552123,-1.7181333760163398e-06,2.27289724819002e-08,1.5135925846010423e-10,0.0,-7.812499825377017e-05,9.982421875
1717170242947345240,3.8465586271740904e-07,3.751744372948451e-07,5.4998408605122506e-11,0.0,7.812499825377017e-05,9.890469551086426
1717170242981512957,-1.1270713002886623e-06,-3.422040890654898e-07,-1.0115053239445615e-10,0.0,0.0,9.842812538146973
1717170243033892565,1.287480358769244e-06,-3.1745424067253225e-09,1.0159845187374117e-10,0.0,7.812499825377017e-05,9.819063186645508
1717170243091435846,-3.5415030197327724e-07,-8.66841975977195e-09,4.5796449965607167e-11,0.0,-7.812499825377017e-05,9.808281898498535
1717170243139625765,1.0905014846684935e-07,3.6653707979894534e-07,1.3360756945246521e-10,0.0,-7.812499825377017e-05,9.8041410446167
1717170243190566759,9.81721541393199e-07,1.1773802377490483e-08,-8.42233366382672e-11,0.0,7.812499825377017e-05,9.803438186645508
1717170243245454909,-1.498174029279653e-08,-1.0169501685197702e-08,-8.589760153165926e-11,0.0,0.0,9.790547370910645
1717170243290891727,9.256228281628864e-07,3.131631274300162e-07,-2.3720744118937986e-11,0.0,0.0,9.815468788146973
1717170243338563205,-4.0510727217224485e-08,-8.081430991069283e-08,3.72707073537093e-11,0.0,7.812499825377017e-05,9.809765815734863
1717170243390006636,-1.735616876885615e-07,-1.5695346178290492e-07,5.6051649433008777e-11,0.0,-7.812499825377017e-05,9.808438301086426
1717170243436382866,-2.369537384083742e-07,-2.3783894675943884e-07,1.1727729898325379e-11,0.0,-7.812499825377017e-05,9.8080472946167
1717170243482276967,-1.5321055002459616e-07,-2.6288975618626864e-07,-2.145174836376551e-11,0.0,7.812499825377017e-05,9.80820369720459
1717170243534318048,-6.228444959788249e-08,-2.9271711809997214e-07,-5.7964764932361135e-11,0.0,0.0,9.808438301086426
1717170243588036316,8.647091362945503e-07,4.863163027835071e-08,-1.626454873560057e-11,0.0,0.0,9.80875015258789
1717170243646485262,4.814828713506358e-08,1.0203404343656075e-08,-1.4383389227920484e-12,0.0,0.0,9.807890892028809
1717170243706165663,-6.63659818656015e-07,-3.3275244959440897e-07,6.462558266306928e-11,0.0,0.0,9.8100004196167
1717170243950893732,3.880864483107871e-07,3.4572167351143435e-08,-7.786499223172427e-11,0.0,0.0,9.8100004196167
1717170243967228756,-3.6126547797721287e-07,3.7438672961798147e-07,5.827569676819522e-11,0.0,0.0,9.809922218322754
1717170244007963672,-2.577736211151205e-07,-3.5165746226084593e-07,-2.21470411454483e-11,0.0,0.0,9.809844017028809
1717170244052964957,-2.611920990602812e-07,3.493049121061631e-07,-2.0463866712283618e-11,0.0,0.0,9.809687614440918
1717170244109724266,-1.184458326974891e-07,3.5868598047272826e-07,1.0017002505247063e-10,0.0,0.0,9.8100004196167
1717170244159494406,8.502343007421587e-07,1.6044721107277837e-09,-5.757805690564943e-11,0.0,0.0,9.809453964233398
1717170244211045880,0.0,0.0,0.0,0.0,0.0,9.8100004196167
1717170244258459256,9.121216066887428e-07,-3.217963069346297e-07,-2.274685995118375e-11,0.0,0.0,9.810546875
1717170244304680608,-1.5493684557554843e-08,8.159932463058794e-08,-3.212258931073464e-11,0.0,0.0,9.809453964233398
1717170244354725766,9.373701459480799e-07,-1.9538666151674988e-07,-1.4210504994949247e-10,0.0,0.0,9.8100004196167
1717170244405178953,-9.002451406558976e-07,-1.405068275062149e-07,1.1266325372627506e-10,0.0,0.0,9.8100004196167
1717170244457961393,2.2745185290773406e-08,-4.489255616135779e-07,-1.9456913510906837e-11,0.0,0.0,9.8100004196167
1717170244515374874,1.5435389855156245e-08,3.084517459228664e-07,6.426402465731229e-11,0.0,0.0,9.810391426086426
1717170244567163212,8.889493301467155e-07,1.4094297284827917e-08,1.5556375632108654e-11,0.0,0.0,9.809609413146973
1717170244614554791,2.332216553213584e-08,-3.186211756656121e-07,-1.5505029204998522e-10,0.0,0.0,9.8100004196167
1717170244653266608,5.0038014620668037e-08,-1.5697320110419355e-09,-5.111525352291535e-13,0.0,0.0,9.8100004196167
1717170244702583042,1.1994926296665653e-07,-3.139573490074099e-09,-3.7504038503249904e-13,0.0,0.0,9.8100004196167
1717170244756159239,1.0189827435169718e-06,3.4377634960947034e-07,-1.7436781185597994e-11,0.0,0.0,9.8100004196167
1717170244805253540,-2.7243705957857856e-08,-5.33405639657758e-08,1.8085689196256638e-11,0.0,0.0,9.8100004196167
1717170244856165418,6.788192195017473e-07,-5.266296057016007e-07,-1.129160445700883e-10,0.0,0.0,9.8100004196167
1717170244912058154,-9.064317509910325e-07,9.337687600918798e-08,7.173447946762224e-11,0.0,0.0,9.8100004196167
1717170244966300549,-1.066876848199172e-06,5.2524033122836045e-08,2.6853273077387385e-11,0.0,0.0,9.8100004196167
1717170245017881629,-1.77796906086769e-08,4.03397109494108e-07,2.530969531178151e-11,0.0,0.0,9.8100004196167
1717170245054728487,6.776416938691909e-08,7.848863781134696e-10,-2.7839794271983243e-12,0.0,0.0,9.8100004196167
1717170245109136358,-6.087920496611332e-07,3.594733186673693e-07,5.7383015006351457e-11,0.0,0.0,9.8100004196167
1717170245157874500,4.5802374870618223e-07,8.60074145236922e-09,-3.891026389979402e-11,0.0,0.0,9.8100004196167
1717170245209642012,5.195394692236732e-07,-0.008722706697881222,-4.882266239292221e-06,4.783722400665283,0.0006375520024448633,9.776095390319824
1717170245258910356,-7.787981530782417e-07,-0.009199954569339752,-5.244591193331871e-06,12.752378463745117,-0.0005479439860209823,9.768987655639648
1717170245305988743,-2.632981193073647e-07,-0.006087255664169788,-4.49177741757012e-06,10.025629043579102,-0.00012176849122624844,9.815013885498047
1717170245353161307,1.430580738315257e-07,-0.003064757212996483,-4.1151620280288626e-06,7.980891227722168,2.6816709578270093e-05,9.82125186920166
1717170245403661970,5.83617861593666e-07,-0.0009552288101986051,-3.819902758550597e-06,6.607600212097168,-1.3821022548654582e-05,9.817412376403809
1717170245454878425,2.0989260107739938e-08,0.0002713908033911139,-3.6807798551308224e-06,5.719038963317871,2.1409019609563984e-05,9.81235122680664
1717170245511577198,-8.726317446416942e-07,0.0008564952295273542,-3.6360640933708055e-06,5.175408363342285,1.8920140064437874e-05,9.808430671691895
1717170245562206107,1.3953728057458648e-06,0.0010553302709013224,-3.702703224917059e-06,4.854442119598389,-1.8832040950655937e-05,9.806056022644043
1717170245608745103,8.067834755820513e-07,0.0010510809952393174,-3.7902520944044227e-06,4.654385566711426,-9.803773718886077e-05,9.804527282714844
1717170245658596736,-6.545699875459832e-07,0.0009500043815933168,-3.892291260854108e-06,4.528746128082275,-2.0522245904430747e-05,9.804200172424316
1717170245703578083,-5.674503995578561e-07,0.0008095866069197655,-4.034021912957542e-06,4.451604843139648,5.957054963801056e-05,9.804014205932617
1717170245753609675,1.9894399372333282e-07,0.0006641843356192112,-4.1832363422145136e-06,4.405786514282227,-1.856436938396655e-05,9.80422306060791
1717170245809556309,2.085505457216641e-07,0.0005281656049191952,-4.365689164842479e-06,4.380507469177246,6.185874372022226e-05,9.804374694824219
1717170245859341372,-5.109774861011829e-07,0.00040906676440499723,-4.536723281489685e-06,4.369662761688232,-0.00021177234884817153,9.80456256866455
1717170245915468004,1.12972898591579e-07,0.00030695588793605566,-4.741088105220115e-06,4.367465496063232,6.161104829516262e-05,9.804717063903809
1717170245966625366,-6.11687141827133e-07,0.00022285494196694344,-4.922483640257269e-06,4.372498989105225,-1.4195215953805018e-05,9.805001258850098
1717170246012458177,4.411114318259024e-08,0.00015624928346369416,-5.128807515575318e-06,4.380537986755371,0.00010310785000910982,9.805031776428223
1717170246053352434,-6.576419764314778e-07,0.00011921651457669213,-5.1522592912078835e-06,4.397124767303467,-0.0002461759140715003,10.049417495727539
1717170246108894946,-6.90149477122759e-07,7.50162434997037e-05,-5.405782758316491e-06,4.388291835784912,0.00010537772323004901,9.697336196899414
1717170246160820034,-6.864175929877092e-07,5.945907105342485e-05,-5.527455414267024e-06,4.379654407501221,2.9709586669923738e-05,9.68454647064209
1717170246210614748,-6.475386271631578e-08,5.68784489587415e-05,-5.6958770073833875e-06,4.367518901824951,-0.00016573631728533655,9.764649391174316
1717170246255582668,-8.719525226297264e-07,5.898464587517083e-05,-5.8506143432168756e-06,4.35002326965332,3.1496278097620234e-05,9.796788215637207
1717170246305614601,1.329947167505452e-06,6.273285544011742e-05,-6.024703907314688e-06,4.330629348754883,-4.6654091420350596e-05,9.808304786682129
1717170246358075711,6.227488142940274e-07,6.740832031937316e-05,-6.162309091450879e-06,4.310286998748779,-4.4512973545352e-05,9.811698913574219
1717170246409380513,-4.05433297601121e-07,7.132966129574925e-05,-6.3036040955921635e-06,4.288066387176514,7.44791905162856e-05,9.811970710754395
1717170246452981987,5.034672767578741e-07,7.60998809710145e-05,-6.461893462983426e-06,4.265841484069824,-0.00027707644039765,9.810992240905762
1717170246504148323,-1.1545699862836045e-06,7.99062181613408e-05,-6.590205430256901e-06,4.242049217224121,0.00015448476187884808,9.809782981872559
1717170246557844133,1.270781240236829e-06,8.258943125838414e-05,-6.739675882272422e-06,4.218572616577148,-0.00011899398668901995,9.80911922454834
1717170246612936444,-1.2617691709237988e-06,8.52216180646792e-05,-6.860854227852542e-06,4.196030616760254,3.914889020961709e-05,9.808064460754395
1717170246658263960,2.5917756829585414e-07,8.74316247063689e-05,-7.012291462160647e-06,4.170986652374268,-0.00015420746058225632,9.807638168334961
1717170246719209238,8.761948606661463e-07,8.859033550834283e-05,-7.140506568248384e-06,4.147505760192871,-0.00011533225188031793,9.807366371154785
1717170246752645158,1.6494007581968617e-07,8.995289681479335e-05,-7.267397450050339e-06,4.123710632324219,8.189964864868671e-05,9.80686092376709
1717170246803885723,8.387471552850911e-07,9.115415014093742e-05,-7.391334747808287e-06,4.099916934967041,-7.236187957460061e-05,9.806666374206543
1717170246856365916,1.0102170335812843e-06,9.199307532981038e-05,-7.517320682381978e-06,4.0761213302612305,-0.00011174657265655696,9.806708335876465
1717170246903690523,7.560090580227552e-07,9.195023449137807e-05,-7.62821991884266e-06,4.053264141082764,-3.158553226967342e-05,9.806358337402344
1717170246955567217,-3.991043797668681e-07,9.18329824344255e-05,-7.765749614918604e-06,4.0279059410095215,-3.035554982488975e-05,9.806557655334473
1717170247007798805,-4.632894672340626e-07,0.00026656792033463717,-7.644551260455046e-06,3.950012445449829,-0.00010738437413237989,9.806975364685059
1717170247057534813,1.3384675412453362e-06,0.0011174300452694297,-6.349136128847022e-06,3.3380725383758545,-3.7260590033838525e-05,9.811421394348145
1717170247110137029,-1.6431482663392671e-07,0.00245436979457736,-3.6803521652473137e-06,1.94520902633667,-0.00017193050007335842,9.816758155822754
1717170247159507934,7.543454216829559e-07,0.003419084707275033,-9.133036655839533e-07,0.3680439293384552,1.6101291748782387e-06,9.817505836486816
1717170247203443915,5.097529651720833e-07,0.003795341355726123,1.3029807632847223e-06,-0.8694037199020386,-0.00013250231859274209,9.814214706420898
1717170247255205064,1.0906779834840563e-06,0.003738866187632084,2.942219452961581e-06,-1.7450101375579834,-2.7128276997245848e-05,9.8109130859375
1717170247310928702,7.690526331316505e-07,0.003439850639551878,4.126138264837209e-06,-2.3605027198791504,-7.315194670809433e-05,9.8087739944458
1717170247360479274,5.586545057667536e-07,0.0030276579782366753,4.940204235026613e-06,-2.7883095741271973,0.00023372509167529643,9.807036399841309
1717170247413768363,1.0100124825385137e-07,0.0025831207167357206,5.472849807119928e-06,-3.0833969116210938,-8.090984920272604e-05,9.806435585021973
1717170247457984133,-1.575006649545685e-07,0.002149170031771064,5.817902092530858e-06,-3.2813944816589355,7.298809941858053e-05,9.805859565734863
1717170247509403132,-1.5084586948432843e-06,0.0017493742052465677,5.968854566162918e-06,-3.4073140621185303,3.385529271326959e-05,9.805890083312988
1717170247554696451,1.050414994097082e-06,0.0013951670844107866,6.046177531970898e-06,-3.4824306964874268,7.224563887575641e-05,9.805595397949219
1717170247605560417,-3.07100776808511e-07,0.0010622515110298991,5.943593350821175e-06,-3.4961304664611816,-4.016381353721954e-06,9.805850982666016
1717170247658099250,1.5447280929947738e-06,0.0007785987108945847,5.811900791741209e-06,-3.4828085899353027,7.471600838471204e-05,9.805941581726074
1717170247717020213,1.6093487147372798e-06,0.0005189523799344897,5.599089490715414e-06,-3.4256014823913574,-1.0346911949454807e-06,9.806031227111816
1717170247764759400,3.177186442826496e-07,0.0002861365501303226,5.33357888343744e-06,-3.328904151916504,0.00015626299136783928,9.806188583374023
1717170247802682699,9.994409992941655e-07,9.193934238282964e-05,5.024375241191592e-06,-3.2071077823638916,3.0490211884171003e-06,9.806476593017578
1717170247855636984,-6.0010995639459e-07,-6.730229506501928e-05,4.7132684812822845e-06,-3.083357810974121,-3.4695294743869454e-05,9.806870460510254
1717170247910007305,9.905843398883007e-07,-0.00020362361101433635,4.396690201247111e-06,-2.941394090652466,0.0001248299377039075,9.807147979736328
1717170247961809985,-9.41059496994967e-09,-0.0003182007640134543,4.050834377267165e-06,-2.7837586402893066,4.808582889381796e-05,9.807289123535156
1717170248010265657,-6.102943927999149e-08,-0.00041384436190128326,3.7549511944234837e-06,-2.6223208904266357,-0.00010512806329643354,9.807832717895508
1717170248060713388,-1.8169026816394762e-07,-0.0004898522747680545,3.414041202631779e-06,-2.4545907974243164,0.00020891196618322283,9.807915687561035
1717170248110220469,-2.494735440450313e-07,-0.0005515781813301146,3.12540009872464e-06,-2.2830848693847656,-6.28432389930822e-05,9.808232307434082
1717170248157217775,5.870272730135184e-07,-0.0005871294415555894,2.8049707907484844e-06,-2.1165530681610107,1.7996235328610055e-05,9.808622360229492
1717170248211516553,-5.134917273608153e-07,-0.0006106309010647237,2.6116279059351655e-06,-1.9612553119659424,5.823840547236614e-05,9.808844566345215
1717170248255933203,-1.2774873994203517e-06,-0.00061448646010831,2.25352459892747e-06,-1.809077262878418,5.9605808928608894e-05,9.808978080749512
1717170248308059975,1.892671775749477e-06,-0.000628629990387708,2.257299684060854e-06,-1.6656494140625,-9.510643576504663e-05,9.809176445007324
1717170248359281754,2.485541585883766e-07,-0.0005965375457890332,1.5774029407111811e-06,-1.5234713554382324,0.00010142799146706238,9.809521675109863
1717170248404136260,-9.82195871301883e-08,-0.0007187342271208763,3.3610820082685677e-06,-1.353777527809143,2.5411241949768737e-05,9.80916690826416
1717170248453071056,-8.43712712139677e-07,-0.0003383133444003761,-1.0907236855928204e-06,-1.3216521739959717,-5.258402961771935e-05,9.810462951660156
1717170248508255447,-1.549937337586016e-06,-0.0005685389041900635,4.751338565256447e-06,-1.2670469284057617,-5.208397487876937e-05,9.809809684753418
1717170248557936995,8.220717404583411e-07,-0.00021985606872476637,-7.041462595225312e-07,-1.2893853187561035,2.5702744096633978e-05,9.810604095458984
1717170248608004150,-1.093429773391108e-06,-0.0005981700960546732,1.1329805147397565e-06,-1.0716549158096313,0.00010558471694821492,9.80866813659668
1717170248653901806,1.419888235432154e-06,-0.0002709275868255645,1.5035598153190222e-06,-1.0502172708511353,-1.1031256690330338e-05,9.810335159301758
1717170248705482865,-3.2554490303482453e-07,-0.0006366918096318841,5.182541826798115e-07,-0.8337159752845764,0.00010757761629065499,9.808932304382324
1717170248759116998,-1.2414191132847918e-06,-0.0003057205176446587,1.3608463405034854e-06,-0.8128876090049744,-8.748612890485674e-05,9.810516357421875
1717170248810444436,-3.757951390070957e-07,-0.0006686614360660315,2.481187379999028e-07,-0.5888655185699463,3.1576597393723205e-05,9.808943748474121
1717170248867799758,5.530673661269248e-07,-0.00034749959013424814,1.0157442602576339e-06,-0.5592714548110962,-4.577752042678185e-05,9.810523986816406
1717170248904033564,-6.511966716971074e-07,-0.0006973283016122878,-7.347787800426886e-08,-0.3252337872982025,3.409986675251275e-05,9.80909252166748
1717170248966127852,-4.521124310485902e-07,-0.00037278441595844924,6.137269110695343e-07,-0.2987488806247711,-4.3763488065451384e-05,9.810665130615234
1717170249019474791,-5.78505762405257e-07,-0.0007132919272407889,-3.746887671240984e-07,-0.06595610827207565,-4.217975219944492e-05,9.809134483337402
1717170249055874195,-1.5594752085235086e-06,-0.0003969840763602406,2.6211264980702254e-07,-0.033210668712854385,7.518918573623523e-05,9.810701370239258
1717170249118124219,9.824942708291928e-07,-0.0007232628995552659,-7.637918315595016e-07,0.2008424699306488,3.8353839045157656e-05,9.80922794342041
1717170249155281385,3.23276090341551e-08,-0.00041083592805080116,-1.0447887177633675e-07,0.22859323024749756,-3.964001007261686e-05,9.810707092285156
1717170249212547047,-6.06519705570463e-08,-0.0007265120511874557,-1.0628787094901782e-06,0.4651496708393097,-3.763098720810376e-05,9.809290885925293
1717170249253294622,-1.6112993250771979e-07,-0.00042030506301671267,-5.086029091216915e-07,0.49165579676628113,7.96069361967966e-05,9.810526847839355
1717170249317245396,-0.017530402168631554,-0.00037291328771971166,-0.15411528944969177,0.5639643669128418,-1.6397830247879028,9.809094429016113
1717170249353748229,-0.007391888648271561,-0.00017139314149972051,-0.19661082327365875,0.6140329241752625,-2.981893539428711,9.806136131286621
1717170249409765235,0.014507436193525791,-0.0008402098319493234,-0.03568975254893303,1.0037333965301514,0.13967226445674896,9.809100151062012
1717170249453137278,0.006505509838461876,-0.00048064542352221906,-0.005347167607396841,1.1063159704208374,1.3535938262939453,9.810466766357422
1717170249508436801,0.0019661046098917723,-0.0007340640877373517,-0.0008789125713519752,1.2455558776855469,0.6106264591217041,9.809355735778809
1717170249562583917,0.0003442144370637834,-0.00046019055298529565,-0.00012288692232687026,1.285608172416687,0.22446417808532715,9.810334205627441
1717170249613212255,-0.00014737727178726345,-0.0007655800436623394,-2.887486516556237e-05,1.5437896251678467,0.0753452256321907,9.808754920959473
1717170249658782662,-0.00025453537818975747,-0.000499534944538027,-4.489670573093463e-06,1.5963003635406494,0.024057993665337563,9.81018352508545
1717170249703159945,-0.00024187224335037172,-0.0007772389217279851,-4.200972853141138e-06,1.843268871307373,0.0060388268902897835,9.808647155761719
1717170249762652859,-0.0002015494683291763,-0.0005576772964559495,-2.7360281364963157e-06,1.9162050485610962,-0.000314959732349962,9.809815406799316
1717170249803594371,-0.00015744211850687861,-0.0008486132137477398,-3.4260674510733224e-06,2.2028961181640625,-0.0014462986728176475,9.808305740356445
1717170249862571618,-0.0001208320027217269,-0.0007278969278559089,-3.43879605679831e-06,2.35455060005188,-0.0018606575904414058,9.809019088745117
1717170249910293815,-9.248770220438018e-05,-0.000703257042914629,-3.726323939190479e-06,2.528669595718384,-0.000825045513920486,9.809009552001953
1717170249959331740,-6.956743891350925e-05,-0.0005300902994349599,-3.812607928921352e-06,2.51271915435791,-0.0016742878360673785,9.809803009033203
1717170250009529741,-5.2743729611393064e-05,-0.0004359844606369734,-3.8860503082105424e-06,2.5404281616210938,-0.00044524017721414566,9.809417724609375
1717170250062853241,-3.9636714063817635e-05,-0.0003759821702260524,-4.027682734886184e-06,2.5706372261047363,-0.0010332664242014289,9.809195518493652
1717170250108117984,-3.0278728445409797e-05,-0.00035583169665187597,-4.2029469113913365e-06,2.6295652389526367,-0.0006431522197090089,9.808883666992188
1717170250164010955,-2.3912118194857612e-05,-0.00035664165625348687,-4.395456016936805e-06,2.7059993743896484,-0.0004660820122808218,9.808403968811035
1717170250203028058,-1.7424988982384093e-05,-0.00036222924245521426,-4.600426109391265e-06,2.7899317741394043,-6.804488657508045e-05,9.808306694030762
1717170250254665138,-1.3374543414101936e-05,-0.00036898706457577646,-4.823245490115369e-06,2.872633695602417,-0.0005099466652609408,9.808284759521484
1717170250310974122,-1.0440127880428918e-05,-0.0003839688142761588,-5.070645329396939e-06,2.9653286933898926,-0.00013846161891706288,9.808173179626465
1717170250359056936,-7.939894203445874e-06,-0.0004032977158203721,-5.334146408131346e-06,3.0667872428894043,4.809576057596132e-05,9.807893753051758
1717170250411187289,-5.7481947806081735e-06,-0.00042625979403965175,-5.607316325040301e-06,3.1757631301879883,-5.5149524996522814e-05,9.807680130004883
1717170250458058320,-4.165159225522075e-06,-0.0004490695137064904,-5.93060212850105e-06,3.2860076427459717,-0.0005184203037060797,9.807769775390625
1717170250503726851,-1.949605575646274e-06,-0.00046383211156353354,-6.236037279450102e-06,3.401236057281494,0.00039630680112168193,9.807378768920898
1717170250558856923,-1.4022268715052633e-06,-0.0004620543331839144,-6.549608315253863e-06,3.5064990520477295,-0.0005143606103956699,9.807458877563477
1717170250608251920,-2.5597123567422386e-06,-0.00044457282638177276,-6.836678949184716e-06,3.596727132797241,1.2429612979758531e-05,9.807390213012695
1717170250653480424,-1.5167524907155894e-06,-0.00040706442086957395,-7.08659945303225e-06,3.6656947135925293,-2.018376108026132e-05,9.807262420654297
1717170250706477418,-1.5474164456463768e-06,-0.0003601318458095193,-7.329387244681129e-06,3.7108893394470215,-0.00010787663632072508,9.807626724243164
1717170250760161414,-1.1153948662467883e-06,-0.0003090661484748125,-7.541692411905387e-06,3.7485556602478027,-2.414578921161592e-05,9.807144165039062
1717170250808368588,-4.72395186079666e-07,-0.0002586339833214879,-7.729913704679348e-06,3.767444610595703,-0.00013758361455984414,9.807391166687012
1717170250853414657,-1.1728982372005703e-06,-0.00021123721671756357,-7.905052370915655e-06,3.7788095474243164,-0.00012094707926735282,9.807024955749512
1717170250918713655,1.1031294206986786e-06,-0.00016737679834477603,-8.071574484347366e-06,3.7851476669311523,-7.954031025292352e-05,9.807220458984375
1717170250966142053,-3.092569755835939e-08,-0.00012851400242652744,-8.208048711821903e-06,3.7864673137664795,2.3834581952542067e-05,9.807114601135254
1717170251009375654,6.186013479236863e-07,-9.555058932164684e-05,-8.341072316397913e-06,3.779020071029663,-0.00019351509399712086,9.807023048400879
1717170251059266946,-1.265863147636992e-06,-6.668068817816675e-05,-8.469378371955827e-06,3.775303840637207,-3.008080238942057e-05,9.807011604309082
1717170251109428066,1.2650383496293216e-07,-4.120211451663636e-05,-8.602531124779489e-06,3.7628278732299805,-6.840565038146451e-05,9.806856155395508
1717170251158617155,-1.0971441497531487e-06,-2.0430363292689435e-05,-8.710047950444277e-06,3.750326633453369,-0.00010883620416279882,9.807023048400879
1717170251209373492,1.1524675755936187e-06,-2.167972752431524e-06,-8.831555533106439e-06,3.7328245639801025,-0.00016543605306651443,9.80688190460205
1717170251264712486,2.6239663952765113e-07,0.00017523330461699516,-8.718794560991228e-06,3.6652889251708984,1.2421260180417448e-05,9.807494163513184
1717170251305706109,-8.275354730358231e-07,0.0010067004477605224,-7.400910362775903e-06,3.093611001968384,-0.00013731542276218534,9.811447143554688
1717170251367521344,1.7323256429335743e-07,0.0023365728557109833,-4.518146852205973e-06,1.7349435091018677,-0.00015426294703502208,9.81710147857666
1717170251403024197,3.6122759183854214e-07,0.0033448783215135336,-1.2703799256996717e-06,0.1619141697883606,-6.41106889816001e-05,9.817564964294434
1717170251461658168,-6.127161213953514e-07,0.003778774756938219,1.478471403970616e-06,-1.1176166534423828,-5.8334666391601786e-05,9.814656257629395
1717170251518676357,-8.746563366912596e-07,0.0037797531113028526,3.6628089219448157e-06,-2.037147045135498,-9.793801291380078e-05,9.811346054077148
1717170251564932089,1.0551781315371045e-06,0.0035294205881655216,5.3408380153996404e-06,-2.711547374725342,-7.470154287148034e-06,9.808801651000977
1717170251603223867,3.28853417386199e-07,0.003153960919007659,6.5611579884716775e-06,-3.1932435035705566,1.8512473616283387e-06,9.807113647460938
1717170251656045557,8.336051138257972e-08,0.0027302985545247793,7.4185963967465796e-06,-3.5347166061401367,0.0001145901987911202,9.80616569519043
1717170251707902820,-2.92824431369354e-08,0.0023087330628186464,7.994123734533787e-06,-3.783461332321167,9.721284732222557e-05,9.805708885192871
1717170251761002107,-1.1561177188923466e-06,0.0019116085022687912,8.347133189090528e-06,-3.9532363414764404,-3.858496711472981e-05,9.805158615112305
1717170251804953515,-5.551606818698929e-07,0.0015522544272243977,8.502524906361941e-06,-4.057827949523926,0.00011674232518998906,9.805079460144043
1717170251858243889,5.097749067317636e-07,0.0012350684264674783,8.558875379094388e-06,-4.124741077423096,4.160717799095437e-05,9.805154800415039
1717170251908458397,9.508750764553042e-08,0.0009624673402868211,8.502499440510292e-06,-4.150264263153076,0.0001192771305795759,9.804920196533203
1717170251956978676,2.8388427608661004e-07,0.0007297586416825652,8.372249794774689e-06,-4.155663013458252,0.00014443417603615671,9.805295944213867
1717170252017854826,-5.398784992394212e-07,0.0005336924805305898,8.207550308725331e-06,-4.143444061279297,-4.961308150086552e-05,9.805339813232422
1717170252067878621,4.231890784467396e-07,0.0003702127141878009,7.992213795660064e-06,-4.103650093078613,0.0001600285613676533,9.805595397949219
1717170252103317136,4.192160929505917e-07,0.00023523997515439987,7.742427442281041e-06,-4.066277027130127,4.906742105958983e-05,9.805569648742676
1717170252157226427,2.4367727746721357e-07,0.00012438654084689915,7.486720733140828e-06,-4.008847236633301,0.00011987063771812245,9.805975914001465
1717170252211945614,-4.1058456190512516e-07,3.403308073757216e-05,7.22236245565e-06,-3.9538686275482178,0.00014143690350465477,9.806009292602539
1717170252261471412,0.019105298444628716,0.00035042353556491435,0.17073498666286469,-4.047158718109131,1.7798781394958496,9.805840492248535
1717170252310735008,0.011997930705547333,0.0003773285134229809,0.2491845339536667,-4.114863872528076,3.6849794387817383,9.800101280212402
1717170252356034530,-0.014170926995575428,-0.00013990455772727728,0.07147139310836792,-3.7703540325164795,0.7122644186019897,9.805328369140625
1717170252407965433,-0.008036138489842415,-0.000224713992793113,0.018250709399580956,-3.6838176250457764,-1.000525712966919,9.807076454162598
1717170252471220445,-0.003391633275896311,-0.000260434317169711,0.0041810935363173485,-3.6188411712646484,-0.5483506321907043,9.8066987991333
1717170252518281601,-0.0014048677403479815,-0.00027157936710864305,0.001127827214077115,-3.5443263053894043,-0.23234909772872925,9.80711555480957
1717170252567997073,-0.0006223819800652564,-0.00028257371741347015,4.32451706728898e-05,-3.4683337211608887,-0.09233874827623367,9.80712890625
1717170252608037248,-0.00030920852441340685,-0.00028284810832701623,0.00028339418349787593,-3.402862787246704,-0.03872491419315338,9.807381629943848
1717170252672186376,-0.00016955168393906206,-0.00031945022055879235,-0.0003447829221840948,-3.307559013366699,-0.014348422177135944,9.807271003723145
1717170252706179719,-0.00010923077206825837,-0.0003246019477955997,0.0006185144884511828,-3.2173705101013184,-0.009420045651495457,9.807624816894531
1717170252763372437,-6.518557347590104e-05,-0.00037001571035943925,-0.001212008879519999,-3.127131462097168,0.0010661588748916984,9.807589530944824
1717170252809145828,-6.418582051992416e-05,-0.00037944893119856715,0.00275059649720788,-2.9995036125183105,-0.009085469879209995,9.807504653930664
1717170252853520965,-4.647570222005015e-06,-0.00048704512300901115,-0.007015893701463938,-2.8641326427459717,0.016008572652935982,9.807818412780762
1717170252902317139,-9.144247451331466e-05,-0.00044985749991610646,0.012296201661229134,-2.734265089035034,-0.04135242477059364,9.807891845703125
1717170252959951859,5.6319255236303434e-05,-0.0005294766742736101,-0.013336516916751862,-2.595950126647949,0.050051216036081314,9.808280944824219
1717170253008434528,-7.448227552231401e-05,-0.0004578077932819724,0.015618901699781418,-2.478863000869751,-0.05517052114009857,9.80849552154541
1717170253058340375,6.290721648838371e-05,-0.0006092918338254094,-0.017609646543860435,-2.317758798599243,0.07813610881567001,9.808265686035156
1717170253107465780,-0.00010008375102188438,-0.00046439538709819317,0.016999054700136185,-2.2134664058685303,-0.07665842026472092,9.808930397033691
1717170253153638941,6.230550206964836e-05,-0.0006019574357196689,-0.020275399088859558,-2.0622482299804688,0.07654816657304764,9.808759689331055
1717170253204408820,-0.0001083094030036591,-0.0005061005358584225,0.02199769765138626,-1.968039631843567,-0.09407316893339157,9.809094429016113
1717170253263910251,0.00010580204252619296,-0.0005030097672715783,-0.030600642785429955,-1.8365594148635864,0.10785441100597382,9.809208869934082
1717170253316806864,-0.0001329527294728905,-0.000439367548096925,0.03369072452187538,-1.7803218364715576,-0.13800059258937836,9.809589385986328
1717170253362681625,0.00011535015801200643,-0.0002297111932421103,-0.038508232682943344,-1.795966625213623,0.1473676711320877,9.810157775878906
1717170253409128496,-0.0001301842712564394,1.1242874279560056e-05,0.03891574591398239,-1.9878605604171753,-0.17474199831485748,9.81093978881836
1717170253453193166,0.00013258082617539912,0.00016257712559308857,-0.040338966995477676,-2.1558666229248047,0.17188645899295807,9.810230255126953
1717170253505013750,-7.19957533874549e-05,-5.384110409067944e-05,-0.0017112171044573188,-2.2073233127593994,-0.08835221827030182,9.694334030151367
1717170253558626420,-6.272717291722074e-05,-0.00010870934056583792,-0.00027144706109538674,-1.9219129085540771,-0.021934546530246735,9.72611141204834
1717170253609041593,-1.2484300896176137e-05,-4.014043588540517e-05,-3.973510683863424e-05,-1.9819426536560059,-0.015847522765398026,9.941169738769531
1717170253657437067,1.4013067811902147e-05,3.583173111110227e-06,-4.120092398807174e-06,-2.0393528938293457,-0.004906143061816692,9.871378898620605
1717170253703018767,2.462068550812546e-05,1.5439391063409857e-05,1.214783196701319e-06,-2.0568156242370605,-0.0009816172532737255,9.834418296813965
1717170253759692194,2.401085293968208e-05,-1.6906438759178855e-05,1.9388305645406945e-06,-2.031818389892578,-0.0029683157335966825,9.816226959228516
1717170253808593722,1.9457185771898367e-05,-8.19723863969557e-05,1.938611831064918e-06,-1.9667576551437378,0.0015288719441741705,9.807511329650879
1717170253866532293,1.4811199434916489e-05,-0.00016137430793605745,1.810397634471883e-06,-1.8641998767852783,0.00015372803318314254,9.80467700958252
1717170253916087684,1.2772815352946054e-05,-0.00024253346782643348,1.6594972294114996e-06,-1.7565878629684448,0.0001950102741830051,9.803413391113281
1717170253958076298,8.10177607490914e-06,-0.0003085714124608785,1.5143581322263344e-06,-1.6289457082748413,0.0001243274164153263,9.804427146911621
1717170254016603381,6.4603882492519915e-06,-0.0003605325473472476,1.3780187373413355e-06,-1.5162769556045532,0.00013513470184989274,9.804967880249023
1717170254065117971,3.9481205931224395e-06,-0.00040563795482739806,1.2364566828182433e-06,-1.391082763671875,7.59446484153159e-05,9.806447982788086
1717170254106322530,3.72296426576213e-06,-0.00043542045750655234,1.1046959116356447e-06,-1.2683720588684082,0.00010806260979734361,9.806832313537598
1717170254160191360,2.808310227919719e-06,-0.00045531115029007196,9.827712119658827e-07,-1.1506515741348267,1.0746277439466212e-05,9.808070182800293
1717170254214749495,1.5994896784832235e-06,-0.00047205761075019836,8.58373596202e-07,-1.0329198837280273,3.008097701240331e-05,9.808133125305176
1717170254258056377,1.480833020650607e-06,-0.0004792253894265741,7.466040869985591e-07,-0.9201831817626953,7.674133667023852e-05,9.808969497680664
1717170254312566036,1.4549096931659733e-06,-0.00048132785013876855,6.385150754795177e-07,-0.8024466037750244,1.7753576685208827e-05,9.80917739868164
1717170254365964907,4.299548450603652e-08,-0.00047639041440561414,5.484983489623119e-07,-0.6997103691101074,-3.7359561247285455e-05,9.809531211853027
1717170254407523976,8.251996064245759e-07,-0.00047046784311532974,4.5125020164960006e-07,-0.5994783639907837,7.741576700937003e-05,9.809489250183105
1717170254459085106,7.38480196105229e-07,-0.00046998707694001496,3.5459146374705597e-07,-0.49424728751182556,8.325434464495629e-06,9.809834480285645
1717170254508967774,1.2171663001936395e-06,-0.00047410489059984684,2.5249681812056224e-07,-0.38151565194129944,1.522574711998459e-05,9.809707641601562
1717170254553381485,-1.3389653830131465e-09,-0.0004708453197963536,1.6430524851784867e-07,-0.2712792158126831,-4.231387356412597e-05,9.809965133666992
1717170254603951584,2.1992828180827928e-07,-0.00046441846643574536,8.001781992561519e-08,-0.17855249345302582,7.435192674165592e-05,9.809981346130371
1717170254657352262,1.039004018821288e-06,-0.0004622114065568894,-1.1770489471985002e-08,-0.06832189112901688,-0.00010027971438830718,9.809916496276855
1717170254709275731,4.1945568796109e-07,-0.0004642614512704313,-1.0348382062375094e-07,0.03441053628921509,7.858984463382512e-05,9.810002326965332
1717170254758462918,-4.353848623850354e-07,-0.000467927020508796,-1.9678810758705367e-07,0.1421366035938263,3.4437271096976474e-05,9.809927940368652
1717170254803863287,4.529843806722056e-07,-0.00046169591951183975,-2.8348119940346805e-07,0.24986745417118073,-8.75720870681107e-05,9.810004234313965
1717170254860670606,-4.3153693241038127e-07,-0.0004522996605373919,-3.664006555936794e-07,0.3425930440425873,2.8998945708735846e-05,9.810075759887695
1717170254914774044,5.12532153607026e-07,-0.00044808382517658174,-4.555620307655772e-07,0.43781426548957825,1.4625872609030921e-05,9.810065269470215
1717170254967776271,-3.3561187251507363e-07,-0.00044898391934111714,-5.471237614074198e-07,0.5405353307723999,-4.0934912249213085e-05,9.809893608093262
1717170255015281114,5.32065826064354e-07,-0.000442063610535115,-6.388241331478639e-07,0.643255889415741,2.0841191144427285e-05,9.809951782226562
1717170255054789523,-3.9817041397327557e-07,-0.00043378258123993874,-7.209488330772729e-07,0.728471040725708,-1.681238427408971e-05,9.81008529663086
1717170255109723932,4.7653134060965385e-07,-0.0004307227209210396,-8.203455763577949e-07,0.8211840391159058,-1.7274072888540104e-05,9.80990219116211
1717170255159813745,-4.445787453732919e-07,-0.00043412274681031704,-9.193450409838988e-07,0.9238985180854797,5.291420620778808e-06,9.809869766235352
1717170255203169335,4.304766036966612e-07,-0.00043035391718149185,-1.014097620100074e-06,1.0216115713119507,-2.2499018086818978e-05,9.809834480285645
1717170255255908375,-5.684468646904861e-07,-0.00042405741987749934,-1.1117463145637885e-06,1.1043212413787842,3.1726878660265356e-05,9.809797286987305
1717170255309621683,-1.2657890238187974e-06,-0.0004245539312250912,-1.2168593457317911e-06,1.2070305347442627,-2.3835709725972265e-05,9.80975341796875
1717170255359267038,3.4740645560304984e-07,-0.0004299882857594639,-1.3351988172871643e-06,1.302241325378418,-3.7892034015385434e-05,9.809783935546875
1717170255410019791,3.788822198202979e-07,-0.00043817772530019283,-1.4541025166181498e-06,1.4074573516845703,4.9240268708672374e-05,9.809416770935059
1717170255453133934,3.514253990033467e-07,-0.0004384960629977286,-1.577732973601087e-06,1.5151723623275757,-7.265377644216642e-05,9.809748649597168
1717170255503794534,-5.756675705015368e-07,-0.0004361954634077847,-1.698181790743547e-06,1.5978891849517822,2.0977260646759532e-05,9.809456825256348
1717170255560301020,2.397922571617528e-07,-0.0004386438231449574,-1.8301741420145845e-06,1.700606107711792,4.360432649264112e-05,9.809544563293457
1717170255608125591,9.001925604934513e-07,-0.00044628902105614543,-1.9728761344595114e-06,1.8083244562149048,-7.8088793088682e-05,9.809236526489258
1717170255652948665,1.6998342289298307e-07,-0.000447117374278605,-2.1122684756846866e-06,1.9110453128814697,2.2843260012450628e-05,9.809393882751465
1717170255703105604,-7.729951789769984e-07,-0.0004463261866476387,-2.257990672660526e-06,2.0087640285491943,-5.143466296431143e-06,9.809080123901367
1717170255755134601,1.5641856521142472e-07,-0.0004516345798037946,-2.4193961962737376e-06,2.108987808227539,-4.6524921344826e-05,9.809385299682617
1717170255809589583,1.8023050074589264e-07,-0.00046072827535681427,-2.5937742975656874e-06,2.2142138481140137,1.8213013390777633e-06,9.808744430541992
1717170255864701733,8.234242159232963e-07,-0.0004745101905427873,-2.7885746476385975e-06,2.334444999694824,6.852026672277134e-06,9.80910873413086
1717170255904034789,2.0390443467022124e-07,-0.0005240858881734312,-2.9225266189314425e-06,2.4473776817321777,-2.5012155674630776e-05,10.119221687316895
1717170255955717441,-7.802813684065768e-07,-0.0004834574938286096,-3.1057252272148617e-06,2.5573573112487793,3.495681085041724e-05,9.58004379272461
1717170256027403738,5.939318015180106e-08,-0.00048231982509605587,-3.3175203952851007e-06,2.6676628589630127,-0.00010029457916971296,9.722502708435059
1717170256052829123,-1.132545079940428e-08,-0.0004891104181297123,-3.4858107937907334e-06,2.7829344272613525,1.0585216841718648e-05,9.78174877166748
1717170256105540578,-1.283927275608221e-07,-0.0004894172889180481,-3.749497864191653e-06,2.890688180923462,-3.257753269281238e-05,9.804588317871094
1717170256167132483,-2.2780750441597775e-07,-0.00024264959210995585,-3.5929181194660487e-06,2.9183807373046875,1.209458423545584e-05,9.81326675415039
1717170256216737171,-2.5025687477864267e-07,0.0008230226230807602,-2.4365367607970256e-06,2.2556724548339844,1.9243825590820052e-05,9.82034683227539
1717170256252444720,5.048493108006369e-07,0.002021237974986434,-2.3346639466126362e-07,0.8998403549194336,-7.584250852232799e-05,9.823700904846191
1717170256309720900,5.6154195959834396e-08,0.002681954298168421,-1.2203756796225207e-06,-0.2964046001434326,4.757447641168255e-06,9.820499420166016
1717170256367024469,2.417355347006378e-07,0.0026847440749406815,7.489920790249016e-06,-1.0727653503417969,-7.354828994721174e-05,9.815560340881348
1717170256404477276,5.025989366913564e-07,0.0028923095669597387,-2.9798213745380053e-06,-1.7241541147232056,6.004430179018527e-05,9.81335735321045
1717170256458361072,6.209430125636572e-07,0.00222044182009995,4.092790732102003e-06,-2.0203707218170166,-0.0001159530584118329,9.809539794921875
1717170256510703045,-5.512888634484625e-08,0.0021524098701775074,3.521951157381409e-06,-2.291433811187744,0.00015689576684962958,9.8092041015625
1717170256561388771,-5.308788217917026e-07,0.0013673516223207116,1.4089209798839875e-06,-2.2522332668304443,-6.245517579372972e-05,9.806839942932129
1717170256611198897,2.846433631020773e-07,0.0014514223439618945,5.12116002937546e-06,-2.4254310131073,-5.161308581591584e-05,9.808582305908203
1717170256652648922,4.6169873257895233e-07,0.0007096430053934455,3.9744824675835844e-07,-2.3058981895446777,0.00010980960360029712,9.806787490844727
1717170256703378142,3.5556521993385104e-07,0.0009312232723459601,5.248088200460188e-06,-2.428819179534912,1.739930667099543e-06,9.808517456054688
1717170256755708693,-1.074568672265741e-06,0.00011365516547812149,3.2066980111267185e-06,-2.233977794647217,2.4283868697239086e-05,9.692138671875
1717170256805809423,-2.8335256274658605e-07,-5.1446320867398754e-05,2.1359301172196865e-06,-1.878986120223999,-5.137164407642558e-05,9.724782943725586
1717170256862149038,7.149921543714299e-07,-0.0001555685739731416,1.8764820879368926e-06,-1.74651300907135,4.1352999687660486e-05,9.940629005432129
1717170256909243932,-8.153020871759509e-07,-0.00023168475308921188,1.7193021903949557e-06,-1.6538785696029663,2.017874976445455e-06,9.87044906616211
1717170256968496039,-8.739600048102147e-07,-0.0002983981685247272,1.5679561329307035e-06,-1.5437264442443848,2.2522433937410824e-05,9.834419250488281
1717170257010037591,6.990379688431858e-07,-0.0003579282492864877,1.4119149227553862e-06,-1.418555736541748,1.4428951544687152e-07,9.816052436828613
1717170257063952986,-1.62032876005469e-08,-0.0004100441874470562,1.2540945135697257e-06,-1.2908576726913452,4.177435039309785e-05,9.808311462402344
1717170257105209584,-3.407223232443357e-07,-0.00044400975457392633,1.1179345165146515e-06,-1.160640835762024,-4.747181083075702e-05,9.804864883422852
1717170257158130004,6.974544248805614e-07,-0.0004666251770686358,9.75764464783424e-07,-1.0379136800765991,6.0308928368613124e-05,9.80477237701416
1717170257211813734,1.3595981727121398e-06,-0.0004855837032664567,8.407217819694779e-07,-0.9176772832870483,-1.3045078958384693e-05,9.80490779876709
1717170257252885853,4.853622499467747e-07,-0.000492901774123311,7.208323609120271e-07,-0.7949357032775879,-6.108196248533204e-05,9.805898666381836
1717170257303038160,3.3591226156204357e-07,-0.0004952719318680465,5.931408395554172e-07,-0.6896880269050598,0.00010381064203102142,9.806879043579102
1717170257360055637,2.7172345085091365e-07,-0.0004998545628041029,4.736924665849074e-07,-0.5669469237327576,-6.167679384816438e-05,9.807544708251953
1717170257410173489,1.2216000868647825e-06,-0.0005056897643953562,3.5374705475987867e-07,-0.45169392228126526,4.872058707405813e-05,9.808282852172852
1717170257460204635,1.2009361398668261e-06,-0.000513246632181108,2.2985452119428373e-07,-0.3214471638202667,-7.945156539790332e-05,9.808625221252441
1717170257502917866,-5.260968691800372e-07,-0.0005105888121761382,1.1901491347998672e-07,-0.21118882298469543,5.8105215430259705e-05,9.809115409851074
1717170257554490911,-7.902603016418652e-09,-0.0005028826417401433,1.2815156935630512e-08,-0.10344237089157104,-6.416064570657909e-05,9.809599876403809
1717170257610462706,-1.6527527577636647e-06,-0.0004989413428120315,-9.223808206115791e-08,0.0068056280724704266,7.336987619055435e-05,9.809454917907715
1717170257668248492,-9.96189370994216e-08,-0.0004996081115677953,-2.1019457108195638e-07,0.12205265462398529,2.7266356482869014e-05,9.809849739074707
1717170257714054601,-9.554774749176431e-08,-0.0005008632433600724,-3.1818942147765483e-07,0.23729929327964783,-9.677181515144184e-05,9.8096923828125
1717170257752658814,-8.307628718284832e-07,-0.0004941126680932939,-4.222575853418675e-07,0.3425453305244446,6.820436101406813e-05,9.809999465942383
1717170257803198993,-1.8941004498174152e-07,-0.00020489961025305092,-1.635696946777898e-07,0.3177151679992676,-2.8869944799225777e-05,9.810853004455566
1717170257855076577,7.536850716860499e-07,0.0004327860369812697,5.125504571878992e-07,-0.2699024975299835,-4.206468292977661e-05,9.813831329345703
1717170257909032309,-1.269728500119527e-07,0.0008906997973099351,1.0184515986111364e-06,-0.89528489112854,7.216813537525013e-05,9.813490867614746
1717170257959893647,-3.4831828088499606e-08,0.0010896504390984774,1.3304518233780982e-06,-1.2858036756515503,-8.918876119423658e-05,9.811772346496582
1717170258014490742,9.774715863386518e-07,0.0010972185991704464,1.5025095763121499e-06,-1.5338447093963623,6.0470916650956497e-05,9.810262680053711
1717170258054011089,1.2018749373510218e-07,0.0009919628500938416,1.5784804645591066e-06,-1.6618540287017822,-5.9065871027996764e-05,9.809144973754883
1717170258103934988,-5.981117965347948e-07,0.0008290126570500433,1.5966205637596431e-06,-1.7397880554199219,5.443108602776192e-05,9.808584213256836
1717170258153396507,3.2716354780859547e-07,0.0006549940444529057,1.5779485238454072e-06,-1.757638692855835,-5.390176283981418e-06,9.808361053466797
1717170258208601174,-5.697192477782664e-07,0.0004936127224937081,1.54283964093338e-06,-1.7429101467132568,-9.599229997547809e-06,9.808395385742188
1717170258257813599,1.0421185834275093e-06,0.00035372513229958713,1.498783490205824e-06,-1.7356033325195312,-1.1669573723338544e-05,9.808440208435059
1717170258313173533,2.3798919812634267e-07,0.000259868596913293,1.4640611425420502e-06,-1.7332494258880615,5.26921940036118e-05,9.808806419372559
1717170258362527220,1.2371014008749626e-06,0.00012525530473794788,1.3644078080687905e-06,-1.6833328008651733,-6.57394775771536e-05,9.80849552154541
1717170258403196386,3.901946001860779e-07,7.289401082744007e-07,1.2629324146473664e-06,-1.5683513879776,4.469391569728032e-05,9.808765411376953
1717170258452846109,-1.8592181731946766e-06,-0.00010694969387259334,1.1515434152897797e-06,-1.4883135557174683,3.4778953704517335e-05,9.80848503112793
1717170258508210853,3.385113132026163e-07,-0.00020089038298465312,1.0409900141894468e-06,-1.3682289123535156,-3.871824446832761e-05,9.809162139892578
1717170258558184966,2.7738042263081297e-07,-0.00028037242009304464,9.275648835682659e-07,-1.2581011056900024,5.9790305385831743e-05,9.808823585510254
1717170258608749472,-4.371083548448951e-07,-0.00034335997770540416,8.158880859809869e-07,-1.1254431009292603,-4.354479824542068e-05,9.80935287475586
1717170258660899222,1.095760012503888e-06,-0.00039311411092057824,7.081507646944374e-07,-1.0077528953552246,1.4023381481820252e-05,9.809173583984375
1717170258713383011,1.396821431853823e-07,-0.0004298992280382663,6.03971614054899e-07,-0.8775470852851868,4.150388849666342e-05,9.80961799621582
1717170258764261841,-1.4545121302944608e-06,-0.0004568512085825205,5.034243599766342e-07,-0.7623263597488403,-4.405377694638446e-05,9.809821128845215
1717170258805017753,1.0014799727287027e-06,-0.0004653395153582096,4.1904806380443915e-07,-0.6420996189117432,-3.194445525878109e-07,9.809551239013672
1717170258861434696,1.0014864670893076e-07,-0.00046520211617462337,3.405381505672267e-07,-0.5418684482574463,-4.2070656490977854e-05,9.809820175170898
1717170258907593991,-5.524703965420485e-07,-0.00046575619489885867,2.5924927626874705e-07,-0.4366365671157837,4.494175300351344e-05,9.810006141662598
1717170258953320113,9.034603749569214e-07,-0.00045746302930638194,1.8820614400283375e-07,-0.3314104378223419,1.4687249858980067e-05,9.810030937194824
1717170259007711108,8.408711664742441e-07,-0.0004478470073081553,1.1660969789772935e-07,-0.24618469178676605,-2.282505556649994e-05,9.80997085571289
1717170259061632182,-9.506965881200813e-08,-0.0004438964824657887,4.3482806688643905e-08,-0.1384686678647995,1.098684788303217e-05,9.810065269470215
1717170259109354345,8.2954801428059e-07,-0.0004436612653080374,-2.5803407410762702e-08,-0.04824797809123993,-1.4861269846733194e-05,9.809996604919434
1717170259152449848,-1.0201397770970289e-07,-0.00043542092316783965,-9.677295054189017e-08,0.05696788802742958,-6.1193713918328285e-06,9.809925079345703
1717170259208536757,-8.368748467546538e-07,-0.00042502375436015427,-1.5817327891909372e-07,0.13717825710773468,2.2859550881548785e-05,9.810239791870117
1717170259257315423,6.801424206059892e-07,-0.0004209195321891457,-2.2517129139032477e-07,0.23738855123519897,-1.8944692783406936e-05,9.810003280639648
1717170259309619800,-2.3043857311222382e-07,-0.0004213390639051795,-3.037426665741805e-07,0.32509711384773254,-3.126057345070876e-05,9.809919357299805
1717170259358523694,6.935194960533408e-07,-0.0004135924973525107,-3.637504164544225e-07,0.41780200600624084,-3.169139017700218e-05,9.810066223144531
1717170259403202896,-1.992861058397466e-07,-0.00040468000224791467,-4.3177755060241907e-07,0.5030051469802856,8.678907761350274e-05,9.810052871704102
1717170259459671628,-2.062441240013868e-07,-0.00040228295256383717,-5.072148496765294e-07,0.588202178478241,-2.8795235266443342e-05,9.810036659240723
1717170259508625256,6.689224960609863e-07,-0.00040347923641093075,-5.808382752547914e-07,0.6859009265899658,-9.587096428731456e-05,9.809860229492188
1717170259553409055,6.92949754466099e-07,-0.0003985341463703662,-6.504756697722769e-07,0.773600697517395,4.8279263864969835e-05,9.809992790222168
1717170259606600348,-2.844793414169544e-07,-0.00039217621088027954,-7.186564516814542e-07,0.8512948155403137,5.188458089833148e-05,9.809889793395996
1717170259664599287,5.725999585592945e-07,-0.0003905212215613574,-8.064889129855146e-07,0.9364872574806213,-6.357950769597664e-05,9.809860229492188
1717170259728560659,-4.1235816183871066e-07,-0.00038526265416294336,-8.778264941611269e-07,1.0241799354553223,8.048157178563997e-05,9.809826850891113
1717170259760444237,-3.100064134287095e-07,-0.0003699874214362353,-9.407540915162826e-07,1.0968642234802246,-5.485459041665308e-06,9.809950828552246
1717170259811800065,-5.855145559507946e-07,-0.0003588810213841498,-1.014969939205912e-06,1.1720428466796875,-6.612447032239288e-05,9.809837341308594
1717170259858047445,-5.790300292574102e-07,-0.0003570716653484851,-1.1012640470653423e-06,1.2472198009490967,2.9384707886492833e-05,9.809799194335938
1717170259903465321,-5.6157222161346e-07,-0.0003557218878995627,-1.181575612463348e-06,1.327394723892212,-5.881218385184184e-05,9.809601783752441
1717170259953107399,1.0682904303394025e-06,-0.00035505747655406594,-1.2733116818708368e-06,1.402570366859436,-2.0449856492632534e-06,9.809557914733887
1717170260007583703,4.5700042505814054e-07,-0.00036201876355335116,-1.376543877995573e-06,1.4952483177185059,-4.1373063140781596e-05,9.809663772583008
1717170260063205233,3.934623862278386e-07,-0.00037414301186800003,-1.4806062154093524e-06,1.580430269241333,7.75710359448567e-05,9.80953311920166
1717170260117915918,3.0401110961975064e-07,-0.00038998416857793927,-1.5986092876119073e-06,1.680620551109314,-4.234944935888052e-05,9.809235572814941
1717170260154966099,-6.812321657889697e-07,-0.0003966699296142906,-1.7156518197225523e-06,1.7758162021636963,-1.746621637721546e-05,9.809483528137207
1717170260213763401,1.6041806816247117e-07,-0.0003992734127677977,-1.8374616956862155e-06,1.8585116863250732,3.7184199754847214e-05,9.80910587310791
1717170260265173260,-8.355930276593426e-07,-0.0004075010656379163,-1.9665601485030493e-06,1.9687131643295288,-2.0522635168163106e-05,9.80949592590332
1717170260315270886,3.9043527522153454e-08,-0.00041803630301728845,-2.1112548438395606e-06,2.05641770362854,-3.2459556678077206e-05,9.808873176574707
1717170260354212112,-8.692584856362373e-07,-0.000423710880568251,-2.2515232558362186e-06,2.1641266345977783,1.878122020571027e-06,9.80925464630127
1717170260409758080,4.0864602368628766e-08,-0.00042515198583714664,-2.4030041458900087e-06,2.2568347454071045,-7.62671697884798e-05,9.808698654174805
1717170260454683798,7.234784220599977e-07,-0.00042481833952479064,-2.558144842623733e-06,2.3395473957061768,9.564496576786041e-05,9.80923843383789
1717170260509348829,-8.143675813698792e-07,-0.0004239272093400359,-2.710580474740709e-06,2.4497549533843994,-3.989631659351289e-05,9.808667182922363
1717170260560315131,1.1120171450329508e-07,-0.00043117074528709054,-2.891842314056703e-06,2.534965991973877,1.0998519428540021e-06,9.808728218078613
1717170260608871145,7.928459808681509e-07,-0.00044529870501719415,-3.0846822482999414e-06,2.650184392929077,-0.00012232507287990302,9.808533668518066
1717170260653298505,-8.125577437567699e-07,-0.0004551198217086494,-3.2762193313828902e-06,2.7579071521759033,0.00010764304897747934,9.808492660522461
1717170260702982583,-2.9558146152908193e-08,-0.0005036777001805604,-3.4794531984516652e-06,2.863356113433838,-3.9233462302945554e-05,10.11874771118164
1717170260757164795,5.72664248466026e-07,-0.00047460521454922855,-3.58831994162756e-06,2.98077654838562,-9.815227531362325e-05,9.579625129699707
1717170260809433588,4.858704869548092e-07,-0.0004847352975048125,-3.9334850043815095e-06,3.093596935272217,2.6361678465036675e-05,9.721904754638672
1717170260859806905,4.2030612235066656e-07,-0.0005048661259934306,-4.0701584111957345e-06,3.216379404067993,1.8015272871707566e-05,9.78096866607666
1717170260903237822,3.527017042870284e-07,-0.000507201359141618,-4.428184183780104e-06,3.344144344329834,-0.00013479162589646876,9.804081916809082
1717170260962286091,-4.796220309799537e-07,-0.0005003603873774409,-4.610304586094571e-06,3.439399242401123,0.00012496740964706987,9.81190013885498
1717170261015973604,1.6298746174925327e-07,-0.000495018670335412,-4.916435045743128e-06,3.5521442890167236,-0.00010143662802875042,9.81368637084961
1717170261066213677,-6.256263986870181e-07,-0.0004939390928484499,-5.1569736569945235e-06,3.652388095855713,-2.5012741389218718e-05,9.812976837158203
1717170261104743096,9.318907245869923e-08,-0.0004868761752732098,-5.446504474093672e-06,3.7601287364959717,-2.8261454644962214e-05,9.812024116516113
1717170261155532100,-8.088258027783013e-07,-0.0004684191371779889,-5.7197089518012945e-06,3.855360746383667,-4.1521096136420965e-05,9.810609817504883
1717170261212786206,-1.695803604206958e-07,-0.00043461090535856783,-5.977067303319927e-06,3.930582284927368,-6.149012187961489e-05,9.809758186340332
1717170261259114719,4.13621762618277e-07,-0.00038646868779323995,-6.234419743122999e-06,3.9807803630828857,1.671703466854524e-05,9.808934211730957
1717170261308699467,-4.0945766954791907e-07,-0.0003307530132587999,-6.440618562919553e-06,4.028450965881348,-8.689235255587846e-05,9.808433532714844
1717170261353147758,-2.0770282560533815e-07,-0.00027416949160397053,-6.629298695770558e-06,4.036097049713135,-9.436276741325855e-06,9.807820320129395
1717170261406808649,3.539794590778911e-07,-0.00022003546473570168,-6.8019658101547975e-06,4.058710098266602,-9.262516687158495e-05,9.8076753616333
1717170261458141909,9.664371418693918e-07,-0.00017083378043025732,-6.9703573899460025e-06,4.051302909851074,-1.0918383850366808e-05,9.807096481323242
1717170261510241353,-4.833685238736507e-07,5.539583071367815e-05,-6.883739843033254e-06,3.9913322925567627,-7.087080302881077e-05,9.807841300964355
1717170261561388124,8.524727377334784e-07,0.0009682389791123569,-5.638080892822472e-06,3.378525972366333,-6.646016845479608e-05,9.811929702758789
1717170261602888057,2.8856811695732176e-07,0.0023478467483073473,-3.1057486467034323e-06,1.955076813697815,-6.917044811416417e-05,9.817328453063965
1717170261653277473,-3.5465640735310444e-07,0.003309711581096053,-6.447356213357125e-07,0.41606491804122925,-2.7093696189695038e-05,9.817480087280273
1717170261707478599,-9.014673452156785e-08,0.003669931087642908,1.2675765219682944e-06,-0.8007175326347351,-3.7145397072890773e-05,9.814257621765137
1717170261762824106,1.3035443089393084e-06,0.0035987072624266148,2.618930011522025e-06,-1.6225192546844482,1.1637107490969356e-05,9.810806274414062
1717170261819500213,1.2423271300576744e-07,0.003290467197075486,3.564912049114355e-06,-2.1966984272003174,-4.828036981052719e-05,9.808625221252441
1717170261866137036,-3.132964536689542e-07,0.0028773935046046972,4.210109636915149e-06,-2.588186502456665,-1.5902998711680993e-05,9.807330131530762
1717170261904090315,8.856316924266139e-08,0.002436338923871517,4.6184181883290876e-06,-2.854454278945923,0.00011160867870785296,9.806397438049316
1717170261958337347,7.802474328855169e-07,0.0020106828305870295,4.8246961341646966e-06,-3.020512819290161,-0.00011404039105400443,9.806118965148926
1717170262010212182,-1.9095938341706642e-07,0.0015881299041211605,4.894236099062255e-06,-3.0963592529296875,0.00010299390851287171,9.806219100952148
1717170262059455660,-6.59359159271844e-07,0.0012105628848075867,4.806214292329969e-06,-3.1295125484466553,4.7897774493321776e-05,9.805607795715332
1717170262110982759,-1.2977999404029106e-06,0.0008669833769090474,4.6908426156733185e-06,-3.0874929428100586,4.9468944780528545e-05,9.80633544921875
1717170262160351741,-2.7694085247276234e-07,0.0005661672912538052,4.43039334641071e-06,-3.0028209686279297,-2.5844718038570136e-05,9.806199073791504
1717170262203476485,1.1210308912268374e-06,0.00031659947126172483,4.2691667658800725e-06,-2.900512456893921,7.597892545163631e-05,9.806509017944336
1717170262254072359,-1.05235312730656e-06,0.0001134929625550285,3.8175908230186906e-06,-2.7905945777893066,5.838561992277391e-05,9.807015419006348
1717170262313361048,2.1618345726892585e-06,-5.776570469606668e-05,3.9765664041624404e-06,-2.6480932235717773,-6.014421160216443e-05,9.807330131530762
1717170262363311801,-3.3669064691821404e-07,-0.00019973612506873906,2.685359277165844e-06,-2.513017177581787,0.00013698733528144658,9.807581901550293
1717170262407761926,2.5320196073153056e-07,-0.00030802201945334673,5.022263849241426e-06,-2.357880115509033,-1.0909592674579471e-05,9.80793571472168
1717170262453521298,-1.9113598170861223e-07,-0.0003824258456006646,-2.651386466823169e-06,-2.202704668045044,0.00011458899825811386,9.808216094970703
1717170262515489575,-6.126810490059142e-07,-0.0004638699465431273,2.056870835076552e-05,-2.0649898052215576,-0.00013216760999057442,9.808411598205566
1717170262565572775,5.27603049249592e-07,-0.0004705400497186929,-6.093741103541106e-05,-1.9047452211380005,0.00023776899615768343,9.808773040771484
1717170262602695229,4.970121949554596e-07,-0.0006718789809383452,0.00019340812286827713,-1.7194689512252808,-0.00038369258982129395,9.808753967285156
1717170262662207432,5.436151582216553e-07,-0.0002830313751474023,-0.00020547849999275059,-1.6942428350448608,0.0008398779318667948,9.809974670410156
1717170262709945110,-1.148822207142075e-06,-0.0005953283980488777,8.92691605258733e-05,-1.5740151405334473,-0.0008704577339813113,9.809361457824707
1717170262759907844,-1.2291375242057256e-06,-0.00022716961393598467,-1.687362055236008e-05,-1.5888361930847168,0.00038316071731969714,9.81000804901123
1717170262803633705,-1.3835706340614706e-06,-0.0006236715707927942,8.26523591967998e-06,-1.3685951232910156,-0.0001607455633347854,9.808721542358398
1717170262854073167,2.6773625450005056e-07,-0.0002550104109104723,9.19873798466142e-07,-1.3684114217758179,7.387076766462997e-05,9.810073852539062
1717170262907307733,2.1470302158377308e-07,-0.000646183209028095,9.991041451939964e-07,-1.1381573677062988,-5.6762823078315705e-05,9.808855056762695
1717170262958328765,2.7460168894322123e-07,-0.00028415556880645454,1.801012672331126e-06,-1.1379536390304565,2.1720927179558203e-05,9.810441970825195
1717170263010493274,-4.2425884316799056e-07,-0.0006724362610839307,5.606421495940594e-07,-0.9076880812644958,8.634448022348806e-05,9.808737754821777
1717170263060504489,-1.468135224058642e-06,-0.0003204868407920003,1.4889795920680626e-06,-0.8824745416641235,-1.215357224282343e-05,9.810561180114746
1717170263103058940,-1.5437888123415178e-06,-0.000692665227688849,2.80806517594101e-07,-0.6571886539459229,-3.72747854271438e-05,9.808917045593262
1717170263153416686,-1.0362550817433203e-08,-0.0003418056876398623,1.1299487141513964e-06,-0.6319641470909119,-5.739873449783772e-05,9.81065559387207
1717170263215630372,-6.404806640603056e-07,-0.0007026026141829789,-3.6443832840404866e-08,-0.4116770625114441,0.00017940635734703392,9.80907154083252
1717170263265345553,-1.577335183355899e-06,-0.00037098617758601904,7.504257837354089e-07,-0.38644322752952576,-7.519120845245197e-05,9.810647010803223
1717170263313579859,2.6684432441470562e-08,-0.0007265011663548648,-3.547987148522225e-07,-0.1311412900686264,-6.961851613596082e-05,9.80904769897461
1717170263352505016,4.5814775972985444e-08,-0.00040442339377477765,3.752793986677716e-07,-0.11088968813419342,5.5060296290321276e-05,9.810771942138672
1717170263406977357,-7.544773694689866e-08,-0.0007397265871986747,-6.860377084194624e-07,0.13442254066467285,7.606209692312405e-05,9.809070587158203
1717170263461454231,-1.1728648985354084e-07,-0.00042579465662129223,1.0809400485811693e-08,0.16968382894992828,9.296425673710473e-07,9.810787200927734
1717170263509904089,-1.4543326187776984e-07,-0.0007623273995704949,-1.0312090807929053e-06,0.4200054407119751,-0.00016140176740009338,9.809062957763672
1717170263559604582,-1.4266869641232915e-07,-0.00046368673793040216,-3.8260287738012266e-07,0.4752836227416992,8.346843969775364e-05,9.810768127441406
1717170263610637226,-1.1845918379549403e-06,-0.0007914407760836184,-1.423535536559939e-06,0.7156208157539368,-6.325129652395844e-05,9.808939933776855
1717170263654651513,1.2381271972117247e-06,-0.0004875263257417828,-7.803221251379e-07,0.7809111475944519,9.498071449343115e-06,9.810709953308105
1717170263707471954,-1.3199322665968793e-06,-0.0008090573828667402,-1.797626737243263e-06,1.0312585830688477,3.4043905543512665e-06,9.80901050567627
1717170263763990389,-5.424284950095171e-07,-0.0005201534368097782,-1.252482888958184e-06,1.0815600156784058,2.1700425349990837e-06,9.81053352355957
1717170263815372472,-6.451306830967951e-07,-0.0008483614074066281,-2.257519781778683e-06,1.3719266653060913,1.069944573828252e-05,9.808796882629395
1717170263864801428,2.6166435418417677e-07,-0.0005689327954314649,-1.7472314084443497e-06,1.4272515773773193,-1.771994175214786e-05,9.810300827026367
1717170263908362370,-6.817314215368242e-07,-0.0008869545417837799,-2.7243497697782004e-06,1.7326403856277466,-5.227093424764462e-05,9.808523178100586
1717170263959364804,-7.508890575991245e-07,-0.000596735451836139,-2.260646397189703e-06,1.7779808044433594,-2.5732762878760695e-05,9.810247421264648
1717170264011506076,-8.664562187732372e-07,-0.0009040225413627923,-3.2268098948406987e-06,2.0733771324157715,7.286402251338586e-05,9.80859088897705
1717170264053245060,-9.960717761714477e-07,-0.000641640042886138,-2.821797579599661e-06,2.1437337398529053,7.915932656032965e-05,9.809504508972168
1717170264104826186,-1.5142472875595558e-07,-0.0009488979703746736,-3.773533990170108e-06,2.469151020050049,-0.00014287137310020626,9.808341026306152
1717170264158739898,5.480778213495796e-07,-0.0008189340005628765,-3.656182343547698e-06,2.5995678901672363,-3.5942604881711304e-05,9.80856704711914
1717170264209484013,5.073565034763305e-07,-0.0009130728431046009,-4.1798562051553745e-06,2.925027370452881,-2.3401464204653166e-05,9.808280944824219
1717170264256186469,-1.2429450180206914e-06,-0.0006736931973136961,-4.269120381650282e-06,2.920393228530884,4.352534233476035e-06,9.809502601623535
1717170264306280144,-3.689823699914996e-07,-0.0005187466740608215,-4.333485321694752e-06,2.925673484802246,-2.224515628768131e-05,9.809416770935059
1717170264358438543,-5.326920700099436e-07,-0.0004115134943276644,-4.478687515074853e-06,2.9208879470825195,4.465493111638352e-05,9.809121131896973
1717170264407398226,-5.106965659251728e-07,-0.0003604472440201789,-4.6062345973041374e-06,2.946070432662964,-0.00016983690147753805,9.808738708496094
1717170264458220225,-5.861435852239083e-07,-0.00034326204331591725,-4.8034598876256496e-06,3.0162417888641357,3.228981586289592e-05,9.808331489562988
1717170264503130215,-6.866266062388604e-07,-0.0003393299994058907,-5.004972081223968e-06,3.0864107608795166,-3.889687650371343e-05,9.807921409606934
1717170264553640978,-9.007924717252536e-08,-0.00034178083296865225,-5.22694381288602e-06,3.1665761470794678,-0.00012575490109156817,9.807894706726074
1717170264614161308,-1.559556324082223e-07,-0.00035472383024170995,-5.470272299135104e-06,3.2367494106292725,7.666072633583099e-05,9.807791709899902
1717170264658982808,-9.16678629891976e-07,-0.0003678315260913223,-5.718327429349301e-06,3.341928720474243,-0.00010828746599145234,9.807580947875977
1717170264708732660,-7.6314897512475e-08,-0.0003788861504290253,-6.00412386120297e-06,3.422114372253418,7.858978642616421e-05,9.807382583618164
1717170264752535719,-3.388004756743612e-07,-0.00038696930278092623,-6.2940512179920916e-06,3.512302875518799,-0.00014094040670897812,9.80748462677002
1717170264807876171,6.010899369357503e-07,-0.00038753135595470667,-6.56807424093131e-06,3.5974950790405273,-2.016409234784078e-05,9.807039260864258
1717170264859459456,-4.4457129888542113e-07,-0.00037318695103749633,-6.8359013312147e-06,3.682680606842041,-0.00013408887025434524,9.807296752929688
1717170264915089455,3.370575143435417e-07,-0.0003425468457862735,-7.0922114900895394e-06,3.73785662651062,-4.956558768753894e-06,9.807266235351562
1717170264962841382,-1.4490761941488017e-06,-0.00030177575536072254,-7.293977887457004e-06,3.773012399673462,-6.556783773703501e-07,9.807178497314453
1717170265003200081,2.4679374988068048e-08,-0.00025730542256496847,-7.487153197871521e-06,3.80814528465271,-0.0001911848085001111,9.807019233703613
1717170265063231009,-2.4644011276109268e-08,-0.00021343166008591652,-7.674723747186363e-06,3.808258533477783,-3.3381911634933203e-05,9.80728816986084
1717170265115211964,8.032423011172796e-07,-0.0001722254091873765,-7.846364496799652e-06,3.8283469676971436,-0.000102568170404993,9.807003021240234
1717170265161175407,-1.1857275694637792e-06,-0.0001345875789411366,-7.993411600182299e-06,3.8234214782714844,4.318094943300821e-05,9.806978225708008
1717170265215635620,-1.2181167221569922e-06,-0.00010061641660286114,-8.135963980748784e-06,3.8234782218933105,-7.237128738779575e-05,9.807034492492676
1717170265256954592,-4.4708838231599657e-07,-7.084615936037153e-05,-8.269008503702935e-06,3.818514823913574,-0.00016067372052930295,9.806867599487305
1717170265310091473,3.8436058957813657e-07,-4.49825165560469e-05,-8.391883056901861e-06,3.8085432052612305,-0.00010423437925055623,9.806864738464355
1717170265359166405,1.050002538249828e-06,-2.3957369194249623e-05,-8.526520105078816e-06,3.7935428619384766,-6.102227052906528e-05,9.806878089904785
1717170265408897677,3.936539485493995e-07,-6.010699962644139e-06,-8.627166607766412e-06,3.763561725616455,2.8850479793618433e-05,9.806897163391113
1717170265453084158,-6.917672976669564e-07,9.792646778805647e-06,-8.7389926193282e-06,3.7735610008239746,-0.00014317422755993903,9.806888580322266
1717170265502947522,-7.363853455899516e-07,2.232791121059563e-05,-8.845641787047498e-06,3.753560781478882,-0.00011161758447997272,9.80674934387207
1717170265557845377,7.749472956675163e-07,3.250528607168235e-05,-8.95094945008168e-06,3.728536367416382,-4.794172855326906e-05,9.806936264038086
1717170265616778403,6.767022568965331e-07,4.2106126784347e-05,-9.061340279004071e-06,3.703514814376831,-6.554834544658661e-05,9.806809425354004
1717170265668678826,-2.3450692765436543e-07,4.929302667733282e-05,-9.165160918200854e-06,3.6984915733337402,-0.00019261628040112555,9.806900978088379
1717170265716015006,-4.11980266790124e-07,5.496748417499475e-05,-9.252493327949196e-06,3.6634650230407715,-3.842443402390927e-05,9.806862831115723
1717170265756699151,5.29729902609688e-07,5.9905723901465535e-05,-9.342161320091691e-06,3.663435697555542,-0.0002708412939682603,9.806951522827148
1717170265806095751,1.1579542160689016e-06,6.379892147378996e-05,-9.435526408196893e-06,3.618406057357788,-2.241668335045688e-05,9.806922912597656
1717170265859482317,4.1071319856200716e-07,6.703081453451887e-05,-9.51525908021722e-06,3.628373622894287,-3.6452169297263026e-05,9.807082176208496
1717170265909327726,-7.04210435742425e-07,6.950181705178693e-05,-9.593321919965092e-06,3.5883371829986572,-8.940650150179863e-05,9.806816101074219
1717170265959181781,-7.334928682212194e-07,7.079289935063571e-05,-9.670498002378736e-06,3.573303699493408,-0.00020074508211109787,9.807075500488281
1717170266003198356,-7.672737183384015e-07,7.269497291417792e-05,-9.763216439750977e-06,3.548266887664795,-6.200192729011178e-05,9.807109832763672
1717170266059469768,7.849308190088777e-07,7.485735113732517e-05,-9.828862857830245e-06,3.5382320880889893,-0.00020063348347321153,9.806974411010742
1717170266109226181,6.750438075187049e-08,0.0002299703046446666,-9.700055670691654e-06,3.4481618404388428,-1.8425447706249543e-05,9.807621955871582
1717170266152941290,-2.3367734414136976e-08,0.00102991983294487,-8.336509381479118e-06,2.9078073501586914,-0.00018423443543724716,9.811531066894531
1717170266203272899,-7.74931692149039e-08,0.0023373523727059364,-5.299590611684835e-06,1.5718581676483154,-0.00021570315584540367,9.817032814025879
1717170266257356184,8.627783358861052e-07,0.003358653048053384,-1.699169274615997e-06,-0.024666475132107735,-0.00011290478141745552,9.817827224731445
1717170266309962438,4.28878479397099e-07,0.0038198556285351515,1.5455932498298353e-06,-1.306504487991333,-0.00013396628492046148,9.814687728881836
1717170266369593615,-1.2054987337251077e-06,0.003853021189570427,4.214576165395556e-06,-2.2834160327911377,8.898875239538029e-05,9.811549186706543
1717170266417862215,2.199574510086677e-06,0.003631149884313345,6.349214345391374e-06,-2.9852540493011475,-9.902627061819658e-05,9.808920860290527
1717170266454023887,-3.4924056535601267e-08,0.003276027739048004,7.982209353940561e-06,-3.521928071975708,-1.8687924239202403e-05,9.807061195373535
1717170266514686697,-2.22799727112033e-07,0.0028677922673523426,9.219669664162211e-06,-3.9034061431884766,7.222887506941333e-05,9.806012153625488
1717170266565108146,-7.496013267882518e-07,0.002452095039188862,1.0073313205793966e-05,-4.1896796226501465,3.419070708332583e-05,9.80529499053955
1717170266613342510,7.185341814874846e-07,0.00205614953301847,1.0662934073479846e-05,-4.395751953125,0.00026156046078540385,9.80463981628418
1717170266652936349,4.551596930468804e-07,0.0016933411825448275,1.1023551451216917e-05,-4.531644344329834,-5.081939525553025e-05,9.80454158782959
1717170266706907214,1.022448600451753e-06,0.00137008773162961,1.1175795407325495e-05,-4.617370128631592,0.00014436125638894737,9.804221153259277
1717170266760991159,8.553749353268358e-07,0.0010865420335903764,1.1206821000087075e-05,-4.677946090698242,0.00012456531112547964,9.804293632507324
1717170266810753103,2.316251084266696e-07,0.0008428558940067887,1.113004964281572e-05,-4.698400020599365,0.00023676641285419464,9.804293632507324
1717170266862876666,4.256082775100367e-07,0.0006348994793370366,1.0973019925586414e-05,-4.6937456130981445,0.00013382526230998337,9.804445266723633
1717170266909683817,1.4596100754715735e-06,0.0004585344286169857,1.0735749128798489e-05,-4.663995265960693,0.00012815948866773397,9.804352760314941
1717170266961980173,1.561538169880805e-06,0.0002826523850671947,1.0409876267658547e-05,-4.629158020019531,1.6917909306357615e-05,9.804698944091797
1717170267009161986,-1.657723629477914e-07,0.00014654523693025112,1.004668592941016e-05,-4.539249420166016,0.00018977928266394883,9.804659843444824
1717170267053224440,-2.129951468532454e-07,1.8623555661179125e-05,9.676301488070749e-06,-4.479280471801758,0.0001753888209350407,9.804936408996582
1717170267106652856,7.135353143894463e-07,-0.00010803119948832318,9.232671800418757e-06,-4.359248638153076,-5.065538425697014e-05,9.805063247680664
1717170267158167849,-1.629904886613076e-06,-0.00022866383369546384,8.72250984684797e-06,-4.234151363372803,0.0002420963137410581,9.805377960205078
1717170267210509950,6.33886770629033e-07,-0.0003389337216503918,8.218018592742737e-06,-4.054003715515137,3.753848432097584e-05,9.805370330810547
1717170267258928202,1.2295387250560452e-06,-0.0004284097522031516,7.710540558036882e-06,-3.8988075256347656,0.00016560041694901884,9.80597972869873
1717170267303933904,-4.6548842647098354e-07,-0.0005001217359676957,7.208559054561192e-06,-3.7385711669921875,3.153753641527146e-05,9.806288719177246
1717170267358575524,-0.019542759284377098,-0.00016521176439709961,-0.17445988953113556,-3.718017101287842,-1.8046232461929321,9.805960655212402
1717170267414431295,-0.012995727360248566,-0.00011005404667230323,-0.2605006694793701,-3.6673355102539062,-3.816821336746216,9.80020809173584
1717170267465203850,0.01377248764038086,-0.0006442848243750632,-0.08180399984121323,-3.2115581035614014,-0.9139534831047058,9.805740356445312
1717170267502942517,0.008161884732544422,-0.0007404881180264056,-0.02317563258111477,-2.9957549571990967,0.8609812259674072,9.80786418914795
1717170267557316847,0.0036572986282408237,-0.0007655306835658848,-0.006221608258783817,-2.8177945613861084,0.4803820252418518,9.807713508605957
1717170267610164083,0.0016773500246927142,-0.0007735759136267006,-0.0016602802788838744,-2.646535634994507,0.20114395022392273,9.808155059814453
1717170267659654766,0.0008689743117429316,-0.0007791193784214556,-0.0004017501778434962,-2.453580856323242,0.0815272405743599,9.808280944824219
1717170267713573992,0.0005144557217136025,-0.0007840052130632102,-0.00011044291750295088,-2.282163143157959,0.034552332013845444,9.808708190917969
1717170267759393436,0.0003377657849341631,-0.0007866098312661052,-1.2530120329756755e-05,-2.086338520050049,0.016093019396066666,9.808671951293945
1717170267803444900,0.0002363665116718039,-0.0007798143778927624,-1.1221080058021471e-05,-1.9107478857040405,0.008167398162186146,9.80907917022705
1717170267857344804,0.00016994723409879953,-0.0007659532711841166,1.0234197361569386e-05,-1.7452583312988281,0.0046425992622971535,9.809309959411621
1717170267917986832,0.00012571363185998052,-0.0007558126817457378,-7.875931260059588e-06,-1.5798090696334839,0.00300559401512146,9.809216499328613
1717170267966771027,9.374548972118646e-05,-0.0007495805039070547,1.4191106856742408e-05,-1.409378170967102,0.0017694539856165648,9.809579849243164
1717170268015497255,7.047106919344515e-05,-0.0007464482914656401,-1.4153592019283678e-05,-1.2489696741104126,0.0014802138321101665,9.809535026550293
1717170268056401999,5.2659954235423356e-05,-0.0007341583841480315,2.3689513909630477e-05,-1.0685532093048096,0.0010195773793384433,9.80964183807373
1717170268109460406,4.002641071565449e-05,-0.0007165668066591024,-3.1404550099978223e-05,-0.9281600117683411,0.0007200337713584304,9.809879302978516
1717170268160647925,3.0004344807821326e-05,-0.0007067262777127326,5.1469749450916424e-05,-0.7777734994888306,0.00035433427547104657,9.809873580932617
1717170268203553657,2.272830533911474e-05,-0.0006901551969349384,-8.066069131018594e-05,-0.6274046897888184,0.0005692309932783246,9.810013771057129
1717170268254058269,1.6807196516310796e-05,-0.0006739417440257967,0.00013675345689989626,-0.4820233881473541,-0.00010360399028286338,9.809828758239746
1717170268309456199,1.4109528819972184e-05,-0.0006643132655881345,-0.00023477262584492564,-0.33669307827949524,0.0011327796382829547,9.810258865356445
1717170268359950377,9.952987966244109e-06,-0.0006631222204305232,0.00041347782826051116,-0.19628721475601196,-0.001250806963071227,9.809897422790527
1717170268410201963,8.587026059103664e-06,-0.0006602940266020596,-0.0006942886975593865,-0.03100430592894554,0.0024364315904676914,9.80999755859375
1717170268454648779,3.442914930928964e-06,-0.0006521829054690897,0.0010672847274690866,0.09447256475687027,-0.0034712995402514935,9.810162544250488
1717170268508724430,6.09328162681777e-06,-0.0006291450117714703,-0.0015061568701639771,0.2296319603919983,0.005247557070106268,9.809929847717285
1717170268567530236,-1.1080945796493324e-06,-0.0006224659737199545,0.001913364976644516,0.3702290952205658,-0.007187302224338055,9.81015682220459
1717170268613406350,8.171561603376176e-06,-0.0006081079482100904,-0.0021910720970481634,0.49021586775779724,0.008958199992775917,9.810142517089844
1717170268653259036,-2.858602101696306e-06,-0.0006030806107446551,0.0022459763567894697,0.630940854549408,-0.009816220961511135,9.809884071350098
1717170268703055734,6.540984031744301e-06,-0.0005722843343392015,-0.002084110165014863,0.7408352494239807,0.009914573282003403,9.810168266296387
1717170268760144381,-6.082560162212758e-07,-0.000556957209482789,0.00174588558729738,0.8515356779098511,-0.009068137966096401,9.810134887695312
1717170268808997113,1.7174245385831455e-06,-0.0005444275448098779,-0.0012978599406778812,0.9564768075942993,0.007506801746785641,9.80970573425293
1717170268853230023,-2.5996865815614e-07,-0.0005354353343136609,0.000858656014315784,1.0870466232299805,-0.005578021984547377,9.81004810333252
1717170268903411158,2.526094249333255e-07,-0.0005219776649028063,-0.0005025479476898909,1.1821290254592896,0.003706942778080702,9.80992317199707
1717170268958479876,-1.382969543328727e-07,-0.0005191529635339975,0.00025441934121772647,1.307532787322998,-0.002014601370319724,9.809551239013672
1717170269009879819,4.260726029770012e-07,-0.0005207607755437493,-0.00011488201562315226,1.4077472686767578,0.0009637780603952706,9.80972671508789
1717170269058692929,-2.1528852300889412e-07,-0.0005277902237139642,3.944115815102123e-05,1.538063406944275,-0.0005068042664788663,9.809654235839844
1717170269110316100,-3.8350815856347253e-08,-0.0005274665309116244,-1.617266570974607e-05,1.6733332872390747,0.000435212830780074,9.809259414672852
1717170269154103340,3.591013353343442e-08,-0.00027981834136880934,1.304007582803024e-06,1.6735560894012451,-0.00046290052705444396,9.810397148132324
1717170269208067158,3.707426898813537e-08,0.000746463832911104,-4.088364221388474e-06,1.0682309865951538,0.0003346247540321201,9.814830780029297
1717170269257800815,-7.125606060753853e-08,0.0017790270503610373,3.1767799555382226e-06,-0.17275620996952057,-0.00014936935622245073,9.817541122436523
1717170269308649595,1.0680089417292038e-06,0.002297810511663556,-7.471433605132916e-07,-1.1740421056747437,-0.0001276433322345838,9.8147554397583
1717170269353527334,-1.1945840014959686e-06,0.0024169899988919497,5.5128662097558845e-06,-1.8553779125213623,0.00013850069080945104,9.811570167541504
1717170269404290001,9.129234399551933e-07,0.0022957443725317717,1.2569154250741121e-06,-2.331634998321533,5.458067244035192e-05,9.809501647949219
1717170269469993487,2.392103510828747e-07,0.0020510500762611628,6.770444542780751e-06,-2.6627488136291504,-0.00016689387848600745,9.807852745056152
1717170269515633850,1.3968880239190185e-06,0.0017584875458851457,1.5575343468299252e-06,-2.8637125492095947,5.631086969515309e-05,9.807307243347168
1717170269564003484,1.7193775647683651e-06,0.0014589597703889012,8.324753252964001e-06,-2.989504814147949,0.0001490177819505334,9.806722640991211
1717170269608052908,-6.804266377002932e-07,0.0011776331812143326,-5.357283612283936e-07,-3.080143690109253,3.1269228202290833e-06,9.806727409362793
1717170269658796730,2.849064344445651e-07,0.0008970799972303212,1.2303644325584173e-05,-3.090628147125244,-0.00016765829059295356,9.806570053100586
1717170269708821925,5.003732326258614e-07,0.0006538477609865367,-8.281136615551077e-06,-3.0609941482543945,0.00042778090573847294,9.806628227233887
1717170269758140611,2.064673481072532e-06,0.0004229693440720439,2.841468813130632e-05,-3.0262110233306885,-0.0003144181100651622,9.80665111541748
1717170269808538102,-1.7426377496576606e-07,0.00022338773123919964,-4.756467751576565e-05,-2.921340227127075,0.0002246141666546464,9.80698013305664
1717170269854474473,-8.201099603866169e-07,5.104683441459201e-05,0.0001290344080189243,-2.816357374191284,-0.00032206688774749637,9.80710506439209
1717170269906024336,6.415017850258664e-08,-9.486278577242047e-05,-0.0003388909681234509,-2.6863350868225098,0.0009683711687102914,9.807498931884766
1717170269959439606,-4.768332473759074e-06,-0.00023263078765012324,0.0010602159891277552,-2.5611395835876465,-0.002717573894187808,9.807438850402832
1717170270012272603,1.6120069631142542e-05,-0.00031160347862169147,-0.003615432418882847,-2.3761954307556152,0.008658944629132748,9.808049201965332
1717170270063624787,-4.778446236741729e-05,-0.0004307421331759542,0.010458825156092644,-2.2503042221069336,-0.022822894155979156,9.808085441589355
1717170270115916811,8.243306365329772e-05,-0.00048414297634735703,-0.01749449037015438,-2.0967602729797363,0.05675084516406059,9.808682441711426
1717170270158667628,-0.00011077921226387843,-0.00039731920696794987,0.022437123581767082,-2.02351713180542,-0.08561418950557709,9.809075355529785
1717170270211446432,0.0001160087194875814,-0.00048640999011695385,-0.024803215637803078,-1.8870104551315308,0.09131764620542526,9.808796882629395
1717170270257745272,-9.842844883678481e-05,-0.00043709916644729674,0.032295744866132736,-1.7723872661590576,-0.11624446511268616,9.809358596801758
1717170270303596863,0.00013055944873485714,-0.00041001822683028877,-0.03336930274963379,-1.7327834367752075,0.1494293063879013,9.809412956237793
1717170270355772015,-0.00010958783968817443,-0.0004036853788420558,0.03556116297841072,-1.631359338760376,-0.14529921114444733,9.809412002563477
1717170270409849098,0.00011001007806044072,-0.0004121582896914333,-0.036696236580610275,-1.5326353311538696,0.16316907107830048,9.80948257446289
1717170270460301486,-0.00011543821165105328,-0.00042464921716600657,0.03790171444416046,-1.4405314922332764,-0.16379417479038239,9.809236526489258
1717170270508129977,9.797942766454071e-05,-0.0004398793971631676,-0.03892068192362785,-1.307320237159729,0.1702374368906021,9.809548377990723
1717170270554297968,-0.00010937506158370525,-0.00044930382864549756,0.03980253264307976,-1.2098397016525269,-0.1740233451128006,9.809453010559082
1717170270607100821,9.484736801823601e-05,-0.0004544559051282704,-0.04055756703019142,-1.0870144367218018,0.17868965864181519,9.809673309326172
1717170270659143636,-9.731965838000178e-05,-0.00046394503442570567,0.04119003191590309,-1.0041735172271729,-0.18274658918380737,9.809720993041992
1717170270714935232,8.676755533087999e-05,-0.00047773224650882185,-0.04169271141290665,-0.8666414022445679,0.18501394987106323,9.809701919555664
1717170270765055256,0.00012048991629853845,-0.0016373140970245004,3.7896272260695696e-05,-0.28828901052474976,-0.18165777623653412,9.72666072845459
1717170270806962648,2.9610553610837087e-05,-0.0015081254532560706,0.0028859693557024,0.6866278648376465,0.11181335151195526,9.944849967956543
1717170270860552023,2.977741496579256e-05,-0.0009646851103752851,-0.017411548644304276,0.5136086344718933,0.042283933609724045,9.77589225769043
1717170270910891068,-8.390470611630008e-05,6.926348578417674e-05,0.03982952982187271,-0.09855674207210541,-0.09660912305116653,9.800854682922363
1717170270952568969,1.9201002942281775e-05,0.0002605173795018345,-0.04151042923331261,-0.639257550239563,0.16617393493652344,9.807380676269531
1717170271004647020,-8.430673187831417e-05,-0.000638845725916326,-0.0012835909146815538,-0.31860414147377014,-0.09707009047269821,9.690997123718262
1717170271059695966,-8.43528177938424e-05,-0.0014042527182027698,0.002182250376790762,1.0558701753616333,-0.026914531365036964,9.996320724487305
1717170271109751584,9.805463378143031e-06,-0.001023133285343647,-0.011323840357363224,1.1606826782226562,0.01063098106533289,9.761641502380371
1717170271159885661,-4.3986521632177755e-05,-8.42729423311539e-05,0.03474946320056915,0.6927580237388611,-0.08364417403936386,9.794312477111816
1717170271203382343,4.6862656745361164e-05,0.00039954105159267783,-0.03915209323167801,-0.05238128453493118,0.14476428925991058,9.807427406311035
1717170271257667959,-1.5087654901435599e-05,0.00017059440142475069,0.03875718638300896,-0.025820141658186913,-0.17401209473609924,9.806876182556152
1717170271310498157,4.673908188124187e-05,-0.00011293886200292036,-0.03804629296064377,0.2668952941894531,0.17667308449745178,9.80748462677002
1717170271358816063,-2.546660107327625e-05,-0.0003430429787840694,0.0371575690805912,0.4793962240219116,-0.17222532629966736,9.808323860168457
1717170271408648989,3.892744643962942e-05,-0.0005068774917162955,-0.03613077849149704,0.7425228357315063,0.16909943521022797,9.809146881103516
1717170271452785973,-2.532168036850635e-05,-0.0006180191412568092,0.034971050918102264,0.9348438382148743,-0.16427426040172577,9.809412956237793
1717170271511482309,2.9229462597868405e-05,-0.0006983047933317721,-0.03366000950336456,1.1484543085098267,0.15880072116851807,9.809425354003906
1717170271567417987,-2.0580793716362678e-05,-0.0007589699816890061,0.03217266499996185,1.3854020833969116,-0.15292967855930328,9.809648513793945
1717170271617435834,2.0028659491799772e-05,-0.0008070978219620883,-0.03051033243536949,1.5845682621002197,0.14649467170238495,9.809469223022461
1717170271666752742,-1.449948194931494e-05,-0.0008431317401118577,0.02864079922437668,1.8060051202774048,-0.13905122876167297,9.809185028076172
1717170271705971249,1.3074567505100276e-05,-0.0008641462191008031,-0.026574620977044106,2.0208311080932617,0.13079316914081573,9.809430122375488
1717170271761785448,-8.519121365679894e-06,-0.0008741349447518587,0.02422047033905983,2.2065770626068115,-0.12140751630067825,9.809196472167969
1717170271809562717,8.213271939894184e-06,-0.0008976837270893157,-0.0213096272200346,2.4372246265411377,0.11019598692655563,9.808926582336426
1717170271869259665,-5.938879439781886e-06,-0.0009507465874776244,0.017125898972153664,2.6620349884033203,-0.09529575705528259,9.808475494384766
1717170271916008329,-7.567130637653463e-07,-0.001008803490549326,-0.010695277713239193,2.939055919647217,0.0737684965133667,9.808124542236328
1717170271952760434,4.285338036424946e-06,-0.0009206141112372279,0.0063289012759923935,3.127136707305908,-0.04888193681836128,9.80850601196289
1717170272009803551,-3.655203499874915e-06,-0.0007744020549580455,-0.0022196155041456223,3.225959300994873,0.027828076854348183,9.80902099609375
1717170272060799606,6.560588872162043e-08,-0.0005808462738059461,0.0006567285745404661,3.2071168422698975,-0.012485705316066742,9.809320449829102
1717170272103373068,6.85236216213525e-07,-0.00042946566827595234,-0.00019045038789045066,3.1870229244232178,0.0028531544376164675,9.8090238571167
1717170272153072713,-1.0554861091804923e-06,-0.00033342171809636056,3.648494021035731e-05,3.187283754348755,-0.0011728930985555053,9.808574676513672
1717170272203768132,2.9158059078326914e-07,-0.00028988978010602295,-1.279084972338751e-05,3.227405071258545,0.0004892835859209299,9.808265686035156
1717170272254814413,5.543011525332986e-07,-0.00028220657259225845,-4.17825867771171e-06,3.2475693225860596,-0.0004963279934599996,9.807814598083496
1717170272313955755,8.764993140175648e-07,-0.0002944933366961777,-5.577210686169565e-06,3.3377177715301514,0.00010710169590311125,9.807625770568848
1717170272359253336,-3.2424057394564443e-07,-0.0003194248420186341,-5.701929694623686e-06,3.42288875579834,3.736852522706613e-05,9.80743408203125
1717170272415254920,8.858394835442596e-07,-0.00034822485758922994,-5.98618453295785e-06,3.5130722522735596,0.00013326105545274913,9.807075500488281
1717170272452892056,-5.043514192948351e-07,-0.0003709771845024079,-6.2855961004970595e-06,3.603276014328003,-0.0002025359426625073,9.807099342346191
1717170272512844497,-6.137962031971256e-07,-0.00018403050489723682,-6.316603048617253e-06,3.648423433303833,0.00017828855197876692,9.807714462280273
1717170272565751081,-1.1879768635481014e-06,0.0007256742101162672,-5.140823304827791e-06,3.0731263160705566,-0.00026092299958691,9.812125205993652
1717170272613850336,-8.761868741657963e-08,0.002112060785293579,-2.7080145628133323e-06,1.727012038230896,5.788969428976998e-05,9.817585945129395
1717170272657317124,-3.762878577617812e-07,0.0030718690250068903,-3.375149049134052e-07,0.20030835270881653,-0.0002227843797300011,9.817550659179688
1717170272713816001,4.6345010673576326e-07,0.0034348045010119677,1.5053385595820146e-06,-0.9365922808647156,-6.41004808130674e-05,9.814095497131348
1717170272762238340,1.1998064337603864e-06,0.0033811985049396753,2.7940538984694285e-06,-1.708448886871338,0.0002824982802849263,9.810729026794434
1717170272803343220,-7.975919515956775e-07,0.003098744433373213,3.729310037670075e-06,-2.3001351356506348,-0.0005293330759741366,9.808601379394531
1717170272852723224,2.803905090331682e-07,0.0027140164747834206,4.323602297517937e-06,-2.6266210079193115,0.00035766500514000654,9.80730152130127
1717170272908260621,-8.505001574121707e-07,0.002299825893715024,4.693812115874607e-06,-2.887871026992798,0.00019011108088307083,9.806610107421875
1717170272961291978,-3.1391655852530675e-07,0.0018972670659422874,4.924738732370315e-06,-3.0788934230804443,-0.0003832906950265169,9.806097984313965
1717170273015074548,6.165806212266034e-07,0.0015308469301089644,4.997075393475825e-06,-3.1397294998168945,0.0002507257158868015,9.806365966796875
1717170273053781997,-3.934102608127432e-07,0.0012077364372089505,4.985652140021557e-06,-3.220379590988159,-0.00021677050972357392,9.805967330932617
1717170273103137059,-5.295160008245148e-07,0.0009295385680161417,4.9791497076512314e-06,-3.2108914852142334,0.0003641549265012145,9.806588172912598
1717170273159571498,0.018215477466583252,0.0010736489202827215,0.1626298725605011,-3.388007879257202,1.7296510934829712,9.805967330932617
1717170273210531673,0.009867209009826183,0.0008965573506429791,0.223533496260643,-3.4634015560150146,3.3859541416168213,9.801608085632324
1717170273260304529,-0.014888600446283817,0.00030801279353909194,0.049382224678993225,-3.1662871837615967,0.2531832456588745,9.80587387084961
1717170273309690204,-0.007488991133868694,0.00017311774718109518,0.009964519180357456,-3.101752996444702,-1.2723044157028198,9.807398796081543
1717170273353786474,-0.002650320529937744,1.0957912309095263e-05,-0.0005228968220762908,-3.0766220092773438,-0.6315175294876099,9.807121276855469
1717170273406564265,-0.0008053650963120162,6.463519093813375e-05,0.005885805934667587,-3.0014679431915283,-0.2624876797199249,9.807522773742676
1717170273466158731,-0.00010073809244204313,-0.00022768060443922877,-0.008678805083036423,-2.8862791061401367,-0.0692271813750267,9.807304382324219
1717170273514431907,2.2898404495208524e-05,2.082447099382989e-05,0.011858729645609856,-2.901266098022461,-0.07631941139698029,9.808399200439453
1717170273567472256,0.00016586070705670863,-0.0003313496708869934,-0.01022610068321228,-2.766078472137451,0.04785892739892006,9.807499885559082
1717170273609164341,6.943492189748213e-05,5.2164650696795434e-05,0.008314165286719799,-2.8210930824279785,-0.041768644005060196,9.808882713317871
1717170273659911940,0.00011827411071863025,-0.0003899223229382187,-0.006949290633201599,-2.6509203910827637,0.041017673909664154,9.80761432647705
1717170273711764625,3.2239622669294477e-05,5.311984205036424e-05,0.0047939796932041645,-2.745917558670044,-0.026674892753362656,9.809131622314453
1717170273755070975,6.0922731790924445e-05,-0.0004484308010432869,-0.004908866249024868,-2.545750141143799,0.022254658862948418,9.807333946228027
1717170273805864269,1.7908878362504765e-05,5.421538298833184e-05,0.002940590726211667,-2.6157195568084717,-0.021644286811351776,9.809574127197266
1717170273860381879,3.655231193988584e-05,-0.0004949037684127688,-0.0021980078890919685,-2.4105470180511475,0.011492393910884857,9.80738639831543
1717170273910639306,1.981884088309016e-05,-0.00033014535438269377,7.963409007061273e-05,-2.4103641510009766,-0.006605039816349745,9.694215774536133
1717170273962580640,1.824184255383443e-05,-0.0005686698714271188,1.4035432286618743e-05,-1.9751278162002563,0.0020082006230950356,9.725757598876953
1717170274003203491,1.3565840163209941e-05,-0.0006167343817651272,3.734393203558284e-06,-1.7849397659301758,0.0007945999386720359,9.940286636352539
1717170274054238686,1.0702122381189838e-05,-0.000608314061537385,2.0413126549101435e-06,-1.7196005582809448,0.0003533979179337621,9.870997428894043
1717170274112441317,4.992254162061727e-06,-0.0005933244246989489,1.6509645774931414e-06,-1.5942902565002441,0.00022752191580366343,9.834540367126465
1717170274162467494,4.397958491608733e-06,-0.0005851882742717862,1.4572591453543282e-06,-1.45899498462677,0.00011477766383904964,9.816828727722168
1717170274216341614,3.7374284147517756e-06,-0.000582668581046164,1.2898889281132142e-06,-1.338703989982605,0.00010718170233303681,9.80816650390625
1717170274267290453,2.5590047698642593e-06,-0.0005836960044689476,1.1366425951564452e-06,-1.198415756225586,2.918668724305462e-05,9.805286407470703
1717170274305154418,2.1752314296463737e-06,-0.0005767853581346571,9.905995739245554e-07,-1.0581334829330444,4.823372364626266e-05,9.804739952087402
1717170274358527987,1.5468538094864925e-06,-0.0005667633377015591,8.639087241135712e-07,-0.9528569579124451,-1.0454685252625495e-05,9.805192947387695
1717170274414353440,1.060046201928344e-06,-0.0005596165428869426,7.295305408661079e-07,-0.8125802278518677,0.00012520187010522932,9.805959701538086
1717170274459364936,4.336603751653456e-07,-0.0005472467746585608,6.094023206060228e-07,-0.7023089528083801,-3.468356226221658e-05,9.806944847106934
1717170274504180860,1.1303828841846553e-06,-0.0005348465638235211,4.935802735417383e-07,-0.6070426106452942,-1.0318267413822468e-05,9.807686805725098
1717170274558541500,2.829499301526539e-08,-0.0005267878877930343,3.8033758187339117e-07,-0.4717867374420166,4.965087282471359e-05,9.808274269104004
1717170274609158082,-3.1857203453000693e-07,-0.0005251491675153375,2.615030325614498e-07,-0.35652562975883484,-1.566206083225552e-05,9.80885124206543
1717170274660343372,6.331193276309932e-07,-0.0005250763497315347,1.4418104399283038e-07,-0.23626962304115295,-5.81305039304425e-06,9.809110641479492
1717170274703103805,2.326701178390067e-07,-0.0005178301362320781,3.384987934396122e-08,-0.1260136216878891,9.754371603776235e-06,9.809362411499023
1717170274753579992,1.0847820703929756e-06,-0.0004969128058291972,-5.378338130412885e-08,-0.020768070593476295,8.820766197459307e-06,9.80976390838623
1717170274812745524,-3.8875396057846956e-07,-0.00047691966756246984,-1.463604490936632e-07,0.05946706607937813,2.1662513972842135e-05,9.809846878051758
1717170274853277399,6.217424015630968e-07,-0.00045779565698467195,-2.3069037524692249e-07,0.16469696164131165,1.2352707017271314e-06,9.80984878540039
1717170274906997486,-7.672898050259391e-08,-0.0004436682793311775,-3.2119592674462183e-07,0.2449164092540741,-2.48779178946279e-05,9.810080528259277
1717170274957790093,5.528277142730076e-07,-0.00043965253280475736,-4.1916135273822874e-07,0.35013335943222046,-2.593018507468514e-05,9.809917449951172
1717170275003100601,-1.0030335033661686e-06,-0.00043319567339494824,-5.123460482536757e-07,0.4253474175930023,6.801153358537704e-05,9.809985160827637
1717170275059099742,-1.2600124819073244e-06,-0.0004281591682229191,-6.05760703820124e-07,0.5555578470230103,-4.5217446313472465e-05,9.810047149658203
1717170275108364890,5.768052915300359e-07,-0.00043003063183277845,-7.090498570505588e-07,0.6207683682441711,-4.300841101212427e-05,9.809795379638672
1717170275159143541,5.324139920048765e-07,-0.00043646583799272776,-8.222343694797019e-07,0.735981285572052,4.778449147124775e-05,9.809926986694336
1717170275205328518,5.052040705777472e-07,-0.0004382106417324394,-9.288914952776395e-07,0.8261952996253967,-2.2821881429990754e-05,9.809900283813477
1717170275261608343,-4.647897924314748e-07,-0.00043537470628507435,-1.0345446526116575e-06,0.9464104175567627,-3.269357330282219e-05,9.809786796569824
1717170275303454711,-1.3752297718383488e-06,-0.0004285933100618422,-1.1392525038900203e-06,1.0116221904754639,2.79409832728561e-05,9.809911727905273
1717170275354530447,-4.627502789844584e-07,-0.0004229646874591708,-1.2466962289181538e-06,1.1118303537368774,-9.190878699882887e-06,9.809871673583984
1717170275408470245,4.174927141775697e-07,-0.00042494028457440436,-1.3684034456673544e-06,1.2170372009277344,-2.98742379527539e-05,9.809747695922852
1717170275457551651,4.2727188542812655e-07,-0.00043408817145973444,-1.4935629906176473e-06,1.3072489500045776,3.6232024285709485e-05,9.809544563293457
1717170275510296144,4.256974364125199e-07,-0.0004464739467948675,-1.6349711131624645e-06,1.4224653244018555,-2.8860587917733938e-05,9.809643745422363
1717170275553983668,2.91347674874487e-07,-0.00045094286906532943,-1.7720742562232772e-06,1.5176862478256226,-2.4106759155984037e-05,9.809507369995117
1717170275604425464,-1.4819182752034976e-06,-0.0004512901359703392,-1.9081896880379645e-06,1.6329063177108765,2.765213321254123e-05,9.809596061706543
1717170275657303970,6.634273859162931e-07,-0.0004570110759232193,-2.0560673874570057e-06,1.733129620552063,-4.8585920012556016e-05,9.809369087219238
1717170275715053474,1.8854503736065453e-08,-0.0005464758141897619,-2.1722657947975677e-06,1.8384780883789062,2.8540742277982645e-05,10.052802085876465
1717170275764394666,6.407666433005943e-07,-0.0004852612328249961,-2.38561710830254e-06,1.9535959959030151,-3.670131991384551e-05,9.701620101928711
1717170275802866329,-9.42216786370409e-07,-0.00047982847900129855,-2.449007297400385e-06,2.0688235759735107,-2.360027610848192e-05,9.688482284545898
1717170275852921128,-1.618408731474119e-07,-0.0004703255253843963,-2.841402647391078e-06,2.1740877628326416,3.399075649213046e-05,9.76815414428711
1717170275910269050,-1.7136095209480118e-07,-0.0004932560259476304,-2.5798492515605176e-06,2.2993345260620117,-9.515922283753753e-05,9.799843788146973
1717170275959143175,-1.5893893134943937e-07,-0.00048204860650002956,-3.5826601560984273e-06,2.3895797729492188,6.897848652442917e-05,9.811620712280273
1717170276010680601,4.690625132752757e-07,-0.0005277771851979196,-2.5986773835029453e-06,2.549832582473755,-7.997719512786716e-05,9.814449310302734
1717170276052831619,3.8167704019542725e-07,-0.0005066234152764082,-4.329338025854668e-06,2.6300857067108154,5.0710939831333235e-05,9.814577102661133
1717170276102758147,-1.242421603819821e-06,-0.0005272342241369188,-2.9570671813416993e-06,2.7753400802612305,-7.018772885203362e-05,9.813726425170898
1717170276159601554,-3.3822007594608294e-07,-0.0005081784329377115,-4.530787464318564e-06,2.8805909156799316,-3.143634967273101e-05,9.812267303466797
1717170276209726609,-4.0693649339118565e-07,-0.0005143157904967666,-3.864560312649701e-06,2.990841865539551,-1.5155596884142142e-05,9.811347007751465
1717170276263125062,8.79885533322522e-07,-0.0005109101184643805,-4.626875124813523e-06,3.1010916233062744,-5.717340900446288e-05,9.810264587402344
1717170276303074594,-5.206400146562373e-07,-0.0005039633833803236,-4.6470645429508295e-06,3.191340446472168,2.9271204766700976e-05,9.809659004211426
1717170276363638909,5.320392659768913e-08,-0.0004926518304273486,-4.976226591679733e-06,3.3215832710266113,-4.3606622057268396e-05,9.808867454528809
1717170276413851885,7.032645612525812e-07,-0.00048675836296752095,-5.231439445196884e-06,3.4018216133117676,-0.00012691141455434263,9.808732032775879
1717170276463034414,-7.816382208147843e-07,-0.0002660299651324749,-5.220988896326162e-06,3.447012186050415,6.313504854915664e-05,9.808632850646973
1717170276505077376,-1.2258949766419391e-07,0.000708573788870126,-4.0215618355432525e-06,2.8468539714813232,-4.605033973348327e-05,9.813482284545898
1717170276554915038,-1.37634643238016e-07,0.002067526336759329,-1.8061061837215675e-06,1.4810550212860107,-5.561421130551025e-05,9.818073272705078
1717170276612783805,1.839921992541349e-07,0.0029322009067982435,1.1308434011425561e-07,0.06972923874855042,-3.958289016736671e-05,9.81731128692627
1717170276664558849,4.79369134609442e-07,0.003213913645595312,1.5613512687195907e-06,-0.9668205380439758,-4.0426446503261104e-05,9.81359577178955
1717170276713671841,8.478754409679823e-08,0.0031157692428678274,2.491277200533659e-06,-1.6683746576309204,3.820732217718614e-06,9.810589790344238
1717170276766669161,-4.692237780545838e-07,0.002819545567035675,3.177251073793741e-06,-2.144810914993286,1.8904745957115665e-05,9.80832290649414
1717170276806977482,6.657006110799557e-07,0.002435697242617607,3.537881184456637e-06,-2.446071147918701,-4.5406155550153926e-05,9.807389259338379
1717170276856576082,7.865902773573907e-08,0.0020407855045050383,3.863642177748261e-06,-2.6221368312835693,7.37476148060523e-05,9.806852340698242
1717170276911892990,3.39176068564484e-07,0.00165774195920676,3.7761981275252765e-06,-2.7730093002319336,-1.6352818420273252e-05,9.80649471282959
1717170276965880127,-1.1150447107866057e-06,0.001330257044173777,4.20588321503601e-06,-2.823714256286621,5.142539521330036e-05,9.806665420532227
1717170277016187169,-3.6685381132883776e-07,0.0010037857573479414,3.2255611586151645e-06,-2.859257698059082,5.209410301176831e-05,9.806493759155273
1717170277060372166,-2.2005968958183075e-07,0.0008003319380804896,5.546303327719215e-06,-2.854675769805908,-2.8040849429089576e-05,9.807000160217285
1717170277103624987,1.0511843129279441e-06,0.000326906971167773,-1.0991227554768557e-06,-2.7499313354492188,4.981197707820684e-05,9.806431770324707
1717170277154122240,-1.1418935486062765e-07,0.00048133201198652387,1.4007049685460515e-05,-2.735136032104492,3.0292153496702667e-06,9.807788848876953
1717170277212877939,2.1011369710777217e-07,-5.976943430141546e-05,-1.3935938113718294e-05,-2.565192699432373,8.232148684328422e-05,9.806769371032715
1717170277253364058,-6.544368034155923e-07,0.00024074027896858752,2.754278466454707e-05,-2.60526180267334,-0.0001085644616978243,9.808605194091797
1717170277305302737,1.0514871746636345e-06,-0.0002860721433535218,-2.60339929809561e-05,-2.3952083587646484,0.0001621849660295993,9.807168006896973
1717170277361322097,-7.788250400153629e-08,8.782312215771526e-05,3.100361209362745e-05,-2.4451889991760254,-0.00015954718401189893,9.809100151062012
1717170277403971817,-1.813066035083466e-07,-0.00042913196375593543,-1.8711629309109412e-05,-2.215062379837036,0.00017793718143366277,9.807452201843262
1717170277455171294,1.569352207297925e-06,1.4973653605920845e-06,1.6728548871469684e-05,-2.2749955654144287,-9.946296631824225e-05,9.809624671936035
1717170277509442780,-6.012402309352183e-07,-0.0005081502022221684,-3.423461748752743e-06,-2.0748274326324463,9.934624540619552e-05,9.807652473449707
1717170277560050784,7.61409182814532e-07,-6.030072836438194e-05,5.6583676268928684e-06,-2.084724187850952,-5.06710639456287e-05,9.809857368469238
1717170277615991359,1.573134568388923e-06,-0.0006645637331530452,2.0657514596678084e-06,-1.644354224205017,9.009038330987096e-05,9.60566234588623
1717170277661850481,-5.959530469112906e-08,-0.0008326187962666154,1.3439923804980936e-06,-1.2140735387802124,-1.7755699445842765e-05,9.867624282836914
1717170277714162558,-9.847383353189798e-08,-0.0007891046698205173,1.1708411875588354e-06,-1.113690972328186,2.3263524781214073e-05,9.912867546081543
1717170277759640710,6.735011197633867e-07,-0.000711125903762877,1.0576806062090327e-06,-1.0433077812194824,-1.658459223108366e-05,9.85699462890625
1717170277804415625,4.01533668537013e-07,-0.0006384950247593224,9.443401722819544e-07,-0.952973484992981,4.9322541599394754e-05,9.827916145324707
1717170277856311281,-5.02276463976159e-07,-0.0005841283709742129,8.330936225320329e-07,-0.8526763916015625,-4.636412631953135e-05,9.813674926757812
1717170277911110593,-1.2502910067269113e-06,-0.0005535125965252519,7.107228157110512e-07,-0.752397894859314,3.336177906021476e-05,9.807551383972168
1717170277960579698,4.776418336405186e-07,-0.0005392328603193164,5.79509958242852e-07,-0.6321309804916382,-5.40402797923889e-05,9.805253982543945
1717170278015864075,3.256987497479713e-07,-0.0005349338753148913,4.4781225483347953e-07,-0.5318695902824402,0.00010380266758147627,9.804977416992188
1717170278067503823,2.2966031565374578e-07,-0.0005274339346215129,3.238167209929088e-07,-0.3716087341308594,-4.5725035306531936e-05,9.805642127990723
1717170278108882853,-4.770595651848453e-08,-0.0005177431157790124,2.0720764837278693e-07,-0.2913528382778168,6.2708245422982145e-06,9.806445121765137
1717170278165953003,1.6627755883291684e-07,-0.0005146597395651042,9.00589611774194e-08,-0.19110222160816193,-1.1644980986602604e-05,9.807245254516602
1717170278214464953,-7.616184234393586e-07,-0.0005154058453626931,-3.822972161060534e-08,-0.04084629565477371,5.430426313068892e-07,9.807965278625488
1717170278264778091,8.03495311174629e-07,-0.0005185749614611268,-1.6214325171404198e-07,0.04940440505743027,-5.055048313806765e-05,9.80851936340332
1717170278306115554,-7.562979931208247e-07,-0.0005127601907588542,-2.723784291447373e-07,0.18966044485569,2.6079140297952108e-05,9.808913230895996
1717170278366793004,1.0610698808477537e-07,-0.0005033818888477981,-3.913520743026311e-07,0.28990596532821655,-1.1099415132775903e-05,9.809300422668457
1717170278418775085,-1.7421096742964437e-07,-0.0004978803917765617,-5.107677338855865e-07,0.400153249502182,2.382423190283589e-05,9.809524536132812
1717170278464929355,6.611718958993151e-07,-0.0004883168148808181,-6.179130878081196e-07,0.4803941547870636,1.75879176822491e-05,9.80966854095459
1717170278508332069,-1.1581086027945275e-06,-0.00047828303650021553,-7.29787359432521e-07,0.6106303930282593,2.0419370230229106e-06,9.809804916381836
1717170278565603872,-3.477115342320758e-07,-0.00047419729526154697,-8.498487318320258e-07,0.7008630633354187,-8.818400237942114e-05,9.809860229492188
1717170278612947207,5.214112661633408e-07,-0.0004772868996951729,-9.7662291409506e-07,0.8110970854759216,4.47278143838048e-05,9.80975341796875
1717170278653726095,-1.9221154445858701e-07,-0.00047335357521660626,-1.1000569202224142e-06,0.9113297462463379,2.697566924325656e-05,9.809799194335938
1717170278705190012,4.0733107198320795e-07,-0.0004678618279285729,-1.2186972071503988e-06,1.0315600633621216,-4.11198016081471e-05,9.809836387634277
1717170278763749578,-5.757705139330938e-07,-0.0004685398016590625,-1.3515935961549985e-06,1.111789345741272,1.0860495422093663e-05,9.809720039367676
1717170278809485990,3.6142520798421174e-07,-0.0004732829111162573,-1.4913479162714793e-06,1.2420209646224976,-2.3858357963035814e-05,9.809744834899902
1717170278856504967,3.7750004366898793e-07,-0.0005549598135985434,-1.6002618394850288e-06,1.32234787940979,-4.961303056916222e-05,10.0532865524292
1717170278903288324,-5.320410423337307e-07,-0.00047310275840573013,-1.7441069530832465e-06,1.4625030755996704,2.734673034865409e-05,9.701889038085938
1717170278957192846,3.538773967193265e-07,-0.00046771499910391867,-1.9202207113266923e-06,1.542724847793579,-1.789551242836751e-05,9.688942909240723
1717170279009691800,-6.517314545817499e-07,-0.0004606207658071071,-1.7990300875680987e-06,1.6529755592346191,-2.265460352646187e-06,9.768560409545898
1717170279060047925,1.9586366306612035e-07,-0.0005052051274105906,-3.1192064398055663e-06,1.7832213640213013,-1.735320438456256e-05,9.800273895263672
1717170279103439752,2.2214793204966554e-07,-0.0003831305366475135,1.1477377483970486e-06,1.8434439897537231,-3.167359682265669e-05,9.812244415283203
1717170279158145992,-8.03920443104289e-07,-0.0004452790308278054,-7.2980042205017526e-06,1.9136440753936768,4.5755947212455794e-05,9.815384864807129
1717170279214622052,1.0067454780937624e-07,8.336651080753654e-05,-2.417991495917704e-08,1.753710389137268,-1.952947786776349e-05,9.81738567352295
1717170279266936203,8.031499874050496e-07,8.35345927043818e-05,-2.8584797746589174e-06,1.5136500597000122,-9.775086073204875e-05,9.816156387329102
1717170279311794523,7.54015090365101e-08,0.00010997534991474822,-1.975662598852068e-06,1.4535859823226929,9.260037768399343e-05,9.813610076904297
1717170279352415026,-8.937342954595806e-07,-0.0005687030497938395,-3.1487520573136862e-06,1.9337538480758667,-6.237088382476941e-05,9.809026718139648
1717170279408363559,-4.8361620486048196e-08,-0.0005892054759897292,-2.966315150843002e-06,2.2240397930145264,-1.1598954188229982e-05,9.809632301330566
1717170279463713263,-1.1173489156135474e-06,-0.001136575359851122,-4.182500106253428e-06,2.724510431289673,-2.1364639906096272e-05,9.807889938354492
1717170279510377222,-2.758435471150733e-07,-0.0011520881671458483,-4.317101684137015e-06,3.075063705444336,-6.271354504860938e-05,9.808570861816406
1717170279553836989,2.8559702514030505e-07,-0.0011359950294718146,-4.81883444081177e-06,3.445646047592163,2.1364980057114735e-05,9.808331489562988
1717170279611231094,-4.750187088120583e-07,-0.0008727972162887454,-5.0051921789417975e-06,3.406113862991333,-1.3835686331731267e-05,9.81014633178711
1717170279660539204,-5.623144261335256e-07,-0.0006879931897856295,-5.130543286213651e-06,3.43647837638855,-6.893023964948952e-05,9.809530258178711
1717170279704032201,-7.156309038691688e-07,-0.0005567657644860446,-5.313253495842218e-06,3.4667716026306152,-2.6618239644449204e-05,9.808782577514648
1717170279756118392,8.746981734475412e-07,-0.000472863728646189,-5.4887141232029535e-06,3.4970147609710693,-0.00012044816685374826,9.808595657348633
1717170279809051073,8.522425218870922e-07,-0.0004279519780538976,-5.7138126976497006e-06,3.547229528427124,0.0001061959337675944,9.807857513427734
1717170279860135637,-7.871153115956986e-07,-0.0004109373257961124,-5.960650923952926e-06,3.607433557510376,-8.301279012812302e-05,9.807503700256348
1717170279909702718,-2.389588757978345e-07,-0.0004035700985696167,-6.233543899725191e-06,3.727632761001587,-3.2511619792785496e-05,9.807337760925293
1717170279954336635,1.2830975038014003e-06,-0.0003840994031634182,-6.499622941191774e-06,3.787822961807251,-4.549347431748174e-05,9.807061195373535
1717170280007024241,-1.162397666121251e-06,-0.00034909837995655835,-6.733981081197271e-06,3.8480019569396973,-5.88421244174242e-05,9.807099342346191
1717170280068656531,3.3366310958626855e-07,-0.00030446090386249125,-6.958250651223352e-06,3.8681585788726807,-4.9262496759183705e-05,9.807099342346191
1717170280115148261,-4.352065161583596e-07,-0.00025714494404383004,-7.1355166255671065e-06,3.9082908630371094,-7.04362682881765e-05,9.80709171295166
1717170280154716015,-1.416153622812999e-06,-0.00021055406250525266,-7.313814421650022e-06,3.918405055999756,-3.566974919522181e-05,9.80695915222168
1717170280203382397,1.7602693560547777e-06,-0.00016696700186003,-7.499258117604768e-06,3.9184916019439697,-9.258006321033463e-05,9.806924819946289
1717170280259262115,2.0791832255895315e-08,4.804885247722268e-05,-7.41903249945608e-06,3.8685247898101807,-2.4208182367146946e-05,9.80742359161377
1717170280303225032,-1.1572267588633167e-08,0.000939304823987186,-6.131865575298434e-06,3.2682347297668457,-3.7461111787706614e-05,9.811714172363281
1717170280358730883,9.457299370296823e-07,0.0023073323536664248,-3.504355618133559e-06,1.8673279285430908,-0.00018816176452673972,9.817124366760254
1717170280404861552,1.2419185395629029e-06,0.003291486529633403,-7.943054356474022e-07,0.3458518385887146,-5.710901314159855e-05,9.817608833312988
1717170280459209187,-9.29964926399407e-07,0.003680693218484521,1.3736661230723257e-06,-0.9159111380577087,2.5078716134885326e-05,9.814367294311523
1717170280510441300,1.7547800723605178e-07,0.003637912217527628,2.9812240427418146e-06,-1.7677161693572998,-8.333920413861051e-05,9.810881614685059
1717170280555681707,-1.0474899880819066e-07,0.003352375701069832,4.119308869121596e-06,-2.3494131565093994,8.288019671454094e-06,9.808578491210938
1717170280605211516,1.1804196446973947e-06,0.0029539819806814194,4.9247651077166665e-06,-2.8009302616119385,2.78049374173861e-05,9.807391166687012
1717170280659704545,3.14135149892536e-07,0.0025201947428286076,5.429530574474484e-06,-3.0622360706329346,-2.0301016775192693e-05,9.806412696838379
1717170280708275164,4.5964620198901684e-07,0.002096422016620636,5.75693456994486e-06,-3.2833328247070312,0.00010440497135277838,9.805837631225586
1717170280753575287,-1.565463549013657e-06,0.0017058358062058687,5.884257006982807e-06,-3.394231081008911,3.0428052923525684e-05,9.805880546569824
1717170280804252752,-3.3911263130903535e-07,0.001359803369268775,5.942162715655286e-06,-3.4349522590637207,-4.34425201092381e-05,9.805923461914062
1717170280875286087,-1.1054969490942312e-06,0.001059519941918552,5.8980654102924746e-06,-3.5255215167999268,0.00020342718926258385,9.805829048156738
1717170280904142218,-9.676049330664682e-07,0.0008050448959693313,5.837991466250969e-06,-3.495955467224121,1.1918124073417857e-05,9.806082725524902
1717170280956707730,-2.1265624638999725e-07,0.0005912263295613229,5.683677954948507e-06,-3.49627947807312,7.147476571844891e-05,9.806357383728027
1717170281007787315,-7.378852160400129e-07,0.0004161613469477743,5.5292116485361475e-06,-3.4465091228485107,-3.3667314710328355e-05,9.806153297424316
1717170281062046372,-7.828797947695421e-07,0.0002714208385441452,5.322290235199034e-06,-3.416666269302368,8.682162297191098e-05,9.806978225708008
1717170281115107232,-1.0840530961786499e-07,0.00015449864440597594,5.180859261599835e-06,-3.3767600059509277,2.6038627765956335e-05,9.806581497192383
1717170281158466633,2.4794903765723575e-06,6.1356695368886e-05,4.922319476463599e-06,-3.2868025302886963,-4.032233846373856e-06,9.807254791259766
1717170281209897120,-7.087097628755146e-07,-1.3090680113236886e-05,4.8420074563182425e-06,-3.2768023014068604,6.844276504125446e-05,9.807027816772461
1717170281263191733,1.4392693401532597e-06,-7.192492194008082e-05,4.4333410187391564e-06,-3.1767868995666504,9.132181730819866e-05,9.807570457458496
1717170281317675587,-8.342867090505024e-07,-0.00011766447278205305,4.7449584599235095e-06,-3.166734457015991,8.236445864895359e-06,9.807204246520996
1717170281356158264,-1.4375426360402344e-07,-0.00017997923714574426,3.267351758040604e-06,-3.02665114402771,-3.121100235148333e-05,9.807794570922852
1717170281412270785,-2.021317442313375e-07,-0.00023019763466436416,6.627913080592407e-06,-2.986546516418457,6.400961865438148e-05,9.807540893554688
1717170281460666971,1.38212112688052e-06,-0.0002940301492344588,-5.054593202657998e-06,-2.826416015625,9.085945930564776e-05,9.8079195022583
1717170281511293933,1.164632294603507e-06,-0.00035843736259266734,3.581739656510763e-05,-2.746248960494995,-0.00012859997514169663,9.807628631591797
1717170281554799182,-5.097265329823131e-07,-0.00042735200258903205,-0.00013147533172741532,-2.596055269241333,0.00038784308708272874,9.808086395263672
1717170281606938810,-3.7389277167676482e-06,-0.0004244314623065293,0.0006189660634845495,-2.4358370304107666,-0.0013050429988652468,9.808239936828613
1717170281658664433,6.949843736947514e-06,-0.0006821535062044859,-0.002315253484994173,-2.275567054748535,0.004382061772048473,9.80800724029541
1717170281709305075,-1.3887914064980578e-05,-0.00024383507843594998,0.0028090111445635557,-2.2453742027282715,-0.012095214799046516,9.809788703918457
1717170281753335437,9.824655535339843e-06,-0.0006178627372719347,-0.0012125059729442,-2.0951292514801025,0.011545833200216293,9.808359146118164
1717170281802641096,3.2606508284516167e-06,-0.00015009914932306856,0.0002140324650099501,-2.154982089996338,-0.0035062129609286785,9.810002326965332
1717170281857293787,2.497979266991024e-06,-0.0006186908576637506,-9.211428550770506e-05,-1.9447532892227173,0.0017944298451766372,9.808043479919434
1717170281909288503,-2.4084152983050444e-07,-0.0001643644500290975,1.2996010809729341e-05,-1.944598913192749,-0.00041249688365496695,9.810184478759766
1717170281958338038,-3.759155333682429e-07,-0.0006354787619784474,-2.5017263283189095e-07,-1.7643624544143677,7.018124597379938e-05,9.807966232299805
1717170282003322828,-1.3808908079226967e-06,-0.0009183539659716189,1.4312561233964516e-06,-1.1838732957839966,5.014790076529607e-05,9.542567253112793
1717170282066352494,-2.236392901977524e-06,-0.000962679332587868,9.474453577240638e-07,-0.8535652160644531,3.622781878220849e-05,9.975086212158203
1717170282119884007,-1.6354201761714648e-06,-0.0008588092168793082,8.217847380365129e-07,-0.8030924797058105,7.526142780989176e-06,9.890608787536621
1717170282166129040,-1.3128635600878624e-06,-0.00074893853161484,7.277251938830887e-07,-0.7326903343200684,-5.223313200986013e-05,9.845503807067871
1717170282206033725,-8.853393183017033e-07,-0.0006575354491360486,6.234385523384844e-07,-0.652349054813385,1.9017748854821548e-05,9.822110176086426
1717170282265007839,-1.2762117194142775e-06,-0.0005918841925449669,5.178578703635139e-07,-0.5520433783531189,1.984669506782666e-05,9.81129264831543
1717170282304485755,-9.804460887608002e-08,-0.0005448740557767451,4.165815425949404e-07,-0.4717708230018616,-6.475701957242563e-05,9.80671215057373
1717170282357687471,-2.4973718382170773e-07,-0.0005132468650117517,3.112486695044936e-07,-0.37151458859443665,3.4112887078663334e-05,9.805177688598633
1717170282411868129,1.3808243011226295e-06,-0.000499445479363203,1.9270208895250107e-07,-0.26126912236213684,2.944141124316957e-05,9.805201530456543
