#timestamp [ns],w_RS_S_x [rad s^-1],w_RS_S_y [rad s^-1],w_RS_S_z [rad s^-1],a_RS_S_x [m s^-2],a_RS_S_y [m s^-2],a_RS_S_z [m s^-2]
1716788091791659209,0.0,0.0,0.0,4.832352867163405e-37,2.266983661305231e-37,9.8100004196167
1716788091801616187,0.0,0.0,0.0,-3292.42236328125,-1544.5611572265625,-2674.8935546875
1716788091812460581,-5.20442335982807e-06,-2.9370703487074934e-06,-6.480098679872981e-10,0.004999999888241291,0.0,13.87874984741211
1716788091822223946,-4.8010128921305295e-06,-2.702150823097327e-06,1.0366135727579717e-10,0.0024999999441206455,0.0012499999720603228,15.03499984741211
1716788091838326467,-3.626883426477434e-06,-2.1426446892292006e-06,2.455669001477645e-10,-0.0012499999720603228,-0.0012499999720603228,13.141250610351562
1716788091842422664,-2.8093518267269246e-06,-1.1261608960921876e-06,2.2521789988516616e-11,-0.009999999776482582,0.0,16.06999969482422
1716788091852695183,-2.2807416826253757e-06,-8.020128348107392e-07,1.0933309813054848e-10,0.004999999888241291,0.0,12.320000648498535
1716788091863511259,-2.135157728844206e-06,-8.321957807311264e-07,1.196545640347324e-11,0.0,-0.0012499999720603228,13.105000495910645
1716788091876288866,-2.437558350720792e-06,-8.574598950872314e-07,2.9265617706997205e-11,0.0,-0.0012499999720603228,13.09749984741211
1716788091909084693,-9.879506706056418e-07,-1.6568753835599637e-07,-7.367950000114476e-12,0.0009374999790452421,0.0014062499394640326,12.053438186645508
1716788091946924041,9.189517413688009e-08,-4.916981310998381e-07,-7.836384319226397e-11,0.0,7.812499825377017e-05,12.202500343322754
1716788091974004656,8.147861194629513e-07,-7.954768221907216e-08,-7.999789719548289e-11,0.0009374999790452421,0.0003124999930150807,11.489375114440918
1716788091990322802,-7.19505976576329e-07,-4.4789985054194403e-08,1.1281094114412582e-11,-0.0006249999860301614,-0.0006249999860301614,11.426875114440918
1716788092007103953,1.8037587778962916e-07,-3.658366836134519e-07,-8.881856361497853e-11,0.0012499999720603228,0.0,10.800000190734863
1716788092027125686,2.053112666544621e-07,-3.478173766779946e-07,-1.0583331433444698e-10,0.0012499999720603228,0.0,10.605000495910645
1716788092046779597,-6.416140649889712e-07,7.403723998322675e-07,8.338721380063419e-11,0.0,-0.0006249999860301614,10.542500495910645
1716788092062457012,2.9010408297835966e-07,-2.7385863177187275e-07,6.406092323274493e-11,-0.0018749999580904841,-0.0009374999790452421,10.4506254196167
1716788092078833616,3.536817416716076e-07,4.641218822598603e-07,3.4421462208333864e-11,0.0012499999720603228,0.0006249999860301614,10.420625686645508
1716788092097779959,-4.6760595751038636e-07,1.3000875753732544e-07,4.077913701161506e-11,0.0,0.0003124999930150807,10.198125839233398
1716788092116158388,4.601902219292242e-07,-1.9267204720563313e-07,1.4482748333932705e-11,0.0006249999860301614,0.0006249999860301614,10.26187515258789
1716788092131068007,-1.0311208598068333e-06,5.351078016246902e-07,-1.4307444118344392e-12,0.0,0.0,9.514375686645508
1716788092148723207,-3.7725871493421437e-07,1.9767682601923298e-07,-1.1022155410600476e-12,0.0,0.0012499999720603228,10.954375267028809
1716788092169527091,5.324233143255697e-07,-1.445695545498893e-07,8.437628373769712e-11,-0.0006249999860301614,0.0,9.9350004196167
1716788092191086635,-2.9923410238552606e-07,2.2884955797053408e-07,8.916478666520788e-12,0.0006249999860301614,0.0006249999860301614,9.998125076293945
1716788092211577344,6.074925522625563e-07,-1.0059889632429986e-07,3.409056370529129e-11,0.0,-0.0003124999930150807,10.143750190734863
1716788092226545590,-2.4432742407043406e-07,-4.3187614551243314e-07,-6.925637840993204e-11,0.0006249999860301614,0.0,9.916250228881836
1716788092242743091,-2.5749511678441195e-07,2.804696634939319e-07,1.7441575961285594e-10,0.0024999999441206455,0.0006249999860301614,9.20875072479248
1716788092259782422,-2.335886506443785e-07,3.0283337082437356e-07,5.853029172442348e-11,0.0024999999441206455,0.0012499999720603228,10.21875
1716788092275144302,-1.997568688238971e-07,3.1252594112629595e-07,1.0235867708985324e-11,-0.0024999999441206455,0.0,10.019375801086426
1716788092291985621,-1.3833562206855277e-07,-3.8645796962555323e-07,-6.5061150911205345e-12,-0.0024999999441206455,0.0006249999860301614,10.67750072479248
1716788092311588302,8.103322102215316e-07,-4.468789427392039e-08,-4.040701107044242e-11,-0.0006249999860301614,0.0003124999930150807,9.721875190734863
1716788092328324099,8.267597308986296e-07,-3.995661046474197e-08,6.918861317206648e-12,0.0,-0.0003124999930150807,9.905000686645508
1716788092347582620,-9.66201810115308e-07,-4.354131988293375e-08,-5.825423476935043e-12,0.0006249999860301614,0.0003124999930150807,9.725000381469727
1716788092362587589,-1.0329245014872868e-07,-4.061646734498936e-07,2.4492408101650653e-11,-0.0024999999441206455,-0.0006249999860301614,9.299375534057617
1716788092380616298,-7.283307468242128e-08,-3.9809356167097576e-07,2.9210245333644025e-12,-0.0024999999441206455,0.0,10.531875610351562
1716788092399814881,-3.5003324683202663e-08,-3.8737820773349085e-07,-1.3843787227685311e-11,-0.0006249999860301614,-0.0003124999930150807,9.761250495910645
1716788092416261807,8.905240065359976e-07,-3.2098153468496093e-08,2.8714586264300124e-11,-0.0006249999860301614,0.0,9.86500072479248
1716788092437214761,4.242542672727723e-08,3.24922950767359e-07,9.644840481826122e-12,0.0012499999720603228,0.0003124999930150807,9.680624961853027
1716788092454576382,9.335351478512166e-07,-1.002716309983498e-08,-1.4593923292061106e-11,0.0006249999860301614,0.0003124999930150807,9.932500839233398
1716788092472909345,7.743869900878053e-08,3.399596835151897e-07,-6.291911436306918e-11,0.0012499999720603228,0.0006249999860301614,9.779375076293945
1716788092489182392,-5.86558201121079e-07,-3.062855746804871e-09,-5.83069287296567e-11,0.0,-0.0006249999860301614,9.10312557220459
1716788092507452935,5.241105327513651e-08,-3.5473289017318166e-07,-9.055725613826837e-11,-0.0024999999441206455,-0.0012499999720603228,10.688750267028809
1716788092526696729,4.6073079573716313e-08,-3.533970982516621e-07,-2.0913326626015305e-11,-0.0012499999720603228,-0.0003124999930150807,9.739375114440918
1716788092548011152,0.0,0.0,0.0,0.0,0.0003124999930150807,9.782500267028809
1716788092563668297,0.0,0.0,0.0,0.0012499999720603228,0.0003124999930150807,9.8100004196167
1716788092583121349,0.0,0.0,0.0,0.0012499999720603228,0.0003124999930150807,9.810625076293945
1716788092600007682,0.0,0.0,0.0,0.0,0.0003124999930150807,9.810625076293945
1716788092616278566,0.0,0.0,0.0,0.0,0.0,9.811250686645508
1716788092634290446,0.0,0.0,0.0,0.0024999999441206455,0.0006249999860301614,9.810625076293945
1716788092653055972,0.0,0.0,0.0,-0.0012499999720603228,-0.0003124999930150807,9.8100004196167
1716788092670729609,0.0,0.0,0.0,0.0006249999860301614,0.0006249999860301614,9.811250686645508
1716788092687128243,0.0,0.0,0.0,0.0,-0.0003124999930150807,9.809375762939453
1716788092704684567,0.0,0.0,0.0,0.0,0.0,9.8100004196167
1716788092725202634,0.0,0.0,0.0,-0.0018749999580904841,-0.0009374999790452421,9.808125495910645
1716788092740874980,0.0,0.0,0.0,0.0006249999860301614,0.0,9.8100004196167
1716788092761859150,0.0,0.0,0.0,-0.0012499999720603228,0.0,9.8100004196167
1716788092777383374,0.0,0.0,0.0,0.0006249999860301614,0.0,9.810625076293945
1716788092794860283,0.0,0.0,0.0,-0.0012499999720603228,-0.0009374999790452421,9.809375762939453
1716788092812949739,0.0,0.0,0.0,-0.0006249999860301614,0.0,9.809375762939453
1716788092830073737,0.0,0.0,0.0,-0.0006249999860301614,-0.0006249999860301614,9.80875015258789
1716788092850068021,0.0,0.0,0.0,-0.0006249999860301614,-0.0003124999930150807,9.810625076293945
1716788092865168564,0.0,0.0,0.0,0.0,0.0,9.809375762939453
1716788092883249893,0.0,0.0,0.0,-0.0012499999720603228,-0.0003124999930150807,9.8100004196167
1716788092904540782,0.0,0.0,0.0,0.0,-0.0003124999930150807,9.8100004196167
1716788092919757472,0.0,0.0,0.0,-0.0012499999720603228,-0.0003124999930150807,9.80875015258789
1716788092939019883,0.0,0.0,0.0,0.0012499999720603228,0.0003124999930150807,9.811250686645508
1716788092957797126,0.0,0.0,0.0,0.0,-0.0003124999930150807,9.8100004196167
1716788092973584881,0.0,0.0,0.0,-0.0012499999720603228,-0.0003124999930150807,9.80875015258789
1716788092991714510,0.0,0.0,0.0,0.0,0.0003124999930150807,9.8100004196167
1716788093009093563,0.0,0.0,0.0,0.0012499999720603228,0.0,9.810625076293945
1716788093032669934,0.0,0.0,0.0,0.0,0.0003124999930150807,9.810625076293945
1716788093051320641,0.0,0.0,0.0,0.0,-0.0003124999930150807,9.809375762939453
1716788093067944023,0.0,0.0,0.0,0.0,-0.0006249999860301614,9.809375762939453
1716788093089631859,0.0,0.0,0.0,0.0,-0.0003124999930150807,9.8100004196167
1716788093106158076,0.0,0.0,0.0,0.0,0.0,9.810625076293945
1716788093124225521,0.0,0.0,0.0,0.0012499999720603228,0.0006249999860301614,9.8100004196167
1716788093143640872,0.0,0.0,0.0,-0.0018749999580904841,-0.0009374999790452421,9.80875015258789
1716788093159712367,0.0,0.0,0.0,0.0,-0.0003124999930150807,9.809375762939453
1716788093177583787,0.0,0.0,0.0,0.0,-0.0003124999930150807,9.8100004196167
1716788093197522452,0.0,0.0,0.0,0.0,-0.0006249999860301614,9.809375762939453
1716788093214791854,0.0,0.0,0.0,0.0,0.0,9.80875015258789
1716788093232955126,0.0,0.0,0.0,0.0,-0.0006249999860301614,9.80875015258789
1716788093251191189,0.0,0.0,0.0,0.0006249999860301614,0.0003124999930150807,9.810625076293945
1716788093267632524,0.0,0.0,0.0,0.0,0.0006249999860301614,9.811875343322754
1716788093285048695,0.0,0.0,0.0,0.0012499999720603228,0.0009374999790452421,9.810625076293945
1716788093302309852,0.0,0.0,0.0,0.0012499999720603228,0.0006249999860301614,9.810625076293945
1716788093320696770,0.0,0.0,0.0,0.0,-0.0003124999930150807,9.809375762939453
1716788093338702623,0.0,0.0,0.0,-0.0012499999720603228,-0.0006249999860301614,9.809375762939453
1716788093355290447,0.0,0.0,0.0,0.0024999999441206455,0.0009374999790452421,9.810625076293945
1716788093376896177,0.0,0.0,0.0,-0.0006249999860301614,-0.0003124999930150807,9.80875015258789
1716788093394636830,0.0,0.0,0.0,0.0,0.0,9.809375762939453
1716788093412006534,0.0,0.0,0.0,0.0,-0.0003124999930150807,9.810625076293945
1716788093430887736,0.0,0.0,0.0,-0.0006249999860301614,-0.0003124999930150807,9.8100004196167
1716788093445742568,0.0,0.0,0.0,-0.0012499999720603228,0.0,9.8100004196167
1716788093463815259,0.0,0.0,0.0,-0.0012499999720603228,0.0003124999930150807,9.810625076293945
1716788093484748168,0.0,0.0,0.0,0.0018749999580904841,0.0009374999790452421,9.811875343322754
1716788093501320078,0.0,0.0,0.0,-0.0006249999860301614,0.0,9.809375762939453
1716788093519581956,0.0,0.0,0.0,-0.0006249999860301614,-0.0003124999930150807,9.8100004196167
1716788093535644018,0.0,0.0,0.0,-0.0012499999720603228,0.0,9.80875015258789
1716788093553172117,0.0,0.0,0.0,-0.0012499999720603228,-0.0006249999860301614,9.808125495910645
1716788093570900362,0.0,0.0,0.0,0.0024999999441206455,0.0003124999930150807,9.810625076293945
1716788093588050380,0.0,0.0,0.0,-0.0012499999720603228,-0.0003124999930150807,9.809375762939453
1716788093609785765,0.0,0.0,0.0,-0.0006249999860301614,0.0,9.8100004196167
1716788093629207735,0.0,0.0,0.0,-0.0006249999860301614,0.0003124999930150807,9.810625076293945
1716788093645576682,0.0,0.0,0.0,-0.0012499999720603228,0.0,9.809375762939453
1716788093663844694,0.0,0.0,0.0,0.0012499999720603228,0.0006249999860301614,9.811250686645508
1716788093679999837,0.0,0.0,0.0,0.0012499999720603228,0.0,9.810625076293945
1716788093698276780,0.0,0.0,0.0,0.0,0.0003124999930150807,9.810625076293945
1716788093717224912,0.0,0.0,0.0,0.0012499999720603228,0.0003124999930150807,9.810625076293945
1716788093735937831,0.0,0.0,0.0,-0.0006249999860301614,-0.0006249999860301614,9.809375762939453
1716788093753361128,0.0,0.0,0.0,0.0006249999860301614,0.0,9.809375762939453
1716788093770478460,0.0,0.0,0.0,0.0,0.0,9.8100004196167
1716788093788425281,0.0,0.0,0.0,0.0006249999860301614,0.0003124999930150807,9.811250686645508
1716788093804747341,0.0,0.0,0.0,0.0012499999720603228,0.0,9.811250686645508
1716788093822660161,0.0,0.0,0.0,0.0,0.0006249999860301614,9.810625076293945
1716788093843005009,0.0,0.0,0.0,0.0,0.0003124999930150807,9.8100004196167
1716788093861722460,0.0,0.0,0.0,-0.0012499999720603228,0.0,9.809375762939453
1716788093878393622,0.0,0.0,0.0,-0.0012499999720603228,-0.0003124999930150807,9.809375762939453
1716788093895839920,0.0,0.0,0.0,0.0006249999860301614,0.0,9.8100004196167
1716788093911811915,0.0,0.0,0.0,-0.0012499999720603228,0.0,9.80875015258789
1716788093933158053,0.0,0.0,0.0,0.0,0.0003124999930150807,9.810625076293945
1716788093957277212,0.0,0.0,0.0,0.0006249999860301614,0.0,9.8100004196167
1716788093969495342,0.0,0.0,0.0,0.0,0.0003124999930150807,9.8100004196167
1716788093987231913,0.0,0.0,0.0,0.0012499999720603228,0.0006249999860301614,9.8100004196167
1716788094006524419,0.0,0.0,0.0,0.0012499999720603228,0.0,9.8100004196167
1716788094021544846,0.0,0.0,0.0,0.0,-0.0012499999720603228,9.80875015258789
1716788094038237834,0.0,0.0,0.0,-0.0024999999441206455,-0.0006249999860301614,9.8100004196167
1716788094056315992,0.0,0.0,0.0,0.0024999999441206455,0.0006249999860301614,9.811250686645508
1716788094076847582,0.0,0.0,0.0,-0.0006249999860301614,0.0,9.809375762939453
1716788094094761815,0.0,0.0,0.0,0.0,0.0003124999930150807,9.810625076293945
1716788094111990864,0.0,0.0,0.0,0.0012499999720603228,0.0006249999860301614,9.8100004196167
1716788094133913110,0.0,0.0,0.0,-0.0012499999720603228,-0.0003124999930150807,9.80875015258789
1716788094152052247,0.0,0.0,0.0,-0.0006249999860301614,-0.0003124999930150807,9.8100004196167
1716788094173577963,0.0,0.0,0.0,0.0012499999720603228,0.0009374999790452421,9.811875343322754
1716788094192596939,0.0,0.0,0.0,-0.0006249999860301614,-0.0006249999860301614,9.809375762939453
1716788094209464617,0.0,0.0,0.0,0.0006249999860301614,0.0,9.809375762939453
1716788094227272173,0.0,0.0,0.0,0.0012499999720603228,0.0003124999930150807,9.8100004196167
1716788094244741767,0.0,0.0,0.0,0.0012499999720603228,0.0,9.811250686645508
1716788094263933108,0.0,0.0,0.0,0.0006249999860301614,0.0006249999860301614,9.8100004196167
1716788094281611429,0.0,0.0,0.0,0.0,0.0003124999930150807,9.810625076293945
1716788094302863608,0.0,0.0,0.0,0.0,0.0003124999930150807,9.810625076293945
1716788094319895518,0.0,0.0,0.0,0.0006249999860301614,0.0,9.8100004196167
1716788094337121626,0.0,0.0,0.0,0.0,0.0003124999930150807,9.811250686645508
1716788094355465379,0.0,0.0,0.0,0.0,-0.0003124999930150807,9.80875015258789
1716788094372974776,0.0,0.0,0.0,0.0,-0.0006249999860301614,9.8100004196167
1716788094392290131,0.0,0.0,0.0,0.0,0.0003124999930150807,9.8100004196167
1716788094413019326,0.0,0.0,0.0,-0.0006249999860301614,0.0,9.8100004196167
1716788094430729250,0.0,0.0,0.0,-0.0012499999720603228,-0.0006249999860301614,9.809375762939453
1716788094448043854,0.0,0.0,0.0,0.0,-0.0003124999930150807,9.8100004196167
1716788094464209412,0.0,0.0,0.0,0.0,0.0006249999860301614,9.811250686645508
1716788094483433382,0.0,0.0,0.0,0.0012499999720603228,0.0003124999930150807,9.810625076293945
1716788094500546919,0.0,0.0,0.0,-0.0024999999441206455,-0.0006249999860301614,9.80875015258789
1716788094515199422,0.0,0.0,0.0,0.0,0.0,9.8100004196167
1716788094536930074,0.0,0.0,0.0,-0.0012499999720603228,-0.0003124999930150807,9.809375762939453
1716788094555966174,0.0,0.0,0.0,0.0,-0.0003124999930150807,9.809375762939453
1716788094572762767,0.0,0.0,0.0,0.0,0.0003124999930150807,9.811250686645508
1716788094590778290,0.0,0.0,0.0,0.0,0.0003124999930150807,9.8100004196167
1716788094606492389,0.0,0.0,0.0,0.0,0.0,9.8100004196167
1716788094624996300,0.0,0.0,0.0,-0.0012499999720603228,-0.0009374999790452421,9.809375762939453
1716788094647521823,0.0,0.0,0.0,-0.0006249999860301614,0.0,9.809375762939453
1716788094663965389,0.0,0.0,0.0,-0.0006249999860301614,-0.0003124999930150807,9.809375762939453
1716788094682873064,0.0,0.0,0.0,0.0018749999580904841,0.0006249999860301614,9.810625076293945
1716788094699069517,0.0,0.0,0.0,0.0,-0.0006249999860301614,9.80875015258789
1716788094716549250,0.0,0.0,0.0,0.0,0.0,9.809375762939453
1716788094738221817,0.0,0.0,0.0,0.0,0.0,9.809375762939453
1716788094756021306,0.0,0.0,0.0,0.0012499999720603228,0.0006249999860301614,9.810625076293945
1716788094780843590,0.0,0.0,0.0,0.0006249999860301614,0.0,9.809375762939453
1716788094800816857,0.0,0.0,0.0,-0.0006249999860301614,-0.0006249999860301614,9.810625076293945
1716788094818495224,0.0,0.0,0.0,-0.0006249999860301614,-0.0003124999930150807,9.8100004196167
1716788094838440851,0.0,0.0,0.0,0.0006249999860301614,0.0,9.8100004196167
1716788094855939587,1.6866959384742586e-08,1.750412792489442e-08,-1.8641366228422385e-11,0.0,0.0003124999930150807,9.553125381469727
1716788094874786200,1.7987211720082996e-08,-6.576691475856933e-07,-3.96129656854427e-11,0.0024999999441206455,0.0006249999860301614,9.880000114440918
1716788094896721786,-7.59564589003503e-09,7.614236352537773e-08,3.7848835177101137e-11,-0.0012499999720603228,-0.0006249999860301614,9.752500534057617
1716788094914958055,2.7711905659089098e-08,9.242330634151585e-08,3.448924479343418e-11,-0.0006249999860301614,0.0003124999930150807,10.017500877380371
1716788094932864040,5.524270818568766e-08,9.831164504703338e-08,4.7449072448912943e-11,-0.0006249999860301614,-0.0003124999930150807,9.8412504196167
1716788094951842812,1.0018210332418676e-06,-2.4200386405937024e-07,-2.8832491949515315e-12,-0.0006249999860301614,0.0,9.798125267028809
1716788094970224625,1.0227349775959738e-06,-2.1756612511580897e-07,-3.6213268495011164e-11,0.0018749999580904841,0.0009374999790452421,9.826250076293945
1716788094991548343,1.1926182708066335e-07,1.5106358830507816e-07,5.0004167473360894e-11,0.0006249999860301614,0.0003124999930150807,9.77125072479248
1716788095008911966,9.986492841562722e-07,-1.7985107092499675e-07,2.3308265040267173e-11,-0.0012499999720603228,-0.0003124999930150807,9.910000801086426
1716788095028956940,1.306057697547658e-07,1.8554018765826186e-07,-3.770739276376389e-11,-0.0006249999860301614,0.0,9.745625495910645
1716788095048983717,3.623929956120264e-07,1.931666133714316e-07,1.1041265124411836e-11,0.0,0.0003124999930150807,9.810625076293945
1716788095066651752,9.90402895695297e-07,-1.4523017455303489e-07,7.085304565279671e-13,0.0,0.0003124999930150807,9.894375801086426
1716788095086058278,-5.442327051241591e-07,-1.380745544565798e-07,-7.392186862631434e-11,0.0,0.0,9.761250495910645
1716788095105163594,-1.4873302234263974e-06,2.2006379651884345e-07,-1.8851424588017807e-10,-0.0006249999860301614,-0.0003124999930150807,9.814375877380371
1716788095122261380,-6.204577402968425e-07,-1.2799735316093575e-07,4.4270975774196586e-12,0.0012499999720603228,0.0006249999860301614,9.835000038146973
1716788095146541964,4.4903089246872696e-08,2.470030722179217e-07,1.4987104612895763e-10,0.0006249999860301614,0.0,9.625
1716788095163355545,2.7905858956955854e-08,2.63176900716644e-07,-8.034656273636642e-12,-0.0006249999860301614,0.0,9.44312572479248
1716788095181253178,3.135244242002955e-08,2.770474907265452e-07,-8.678079956025986e-13,-0.0012499999720603228,0.0003124999930150807,10.628125190734863
1716788095201467085,6.061959823000507e-08,2.7604008323578455e-07,7.403435503539058e-11,0.0,0.0,9.707500457763672
1716788095217468097,-8.400745059589099e-07,-7.185506234463901e-08,2.30714058968573e-11,0.0,0.0003124999930150807,9.171875
1716788095237505888,4.554349430918592e-08,-4.2312959180890175e-07,2.785262298576896e-11,0.0,0.0,10.594375610351562
1716788095256552883,0.0,0.0,0.0,-0.0012499999720603228,-0.0006249999860301614,9.567500114440918
1716788095274142802,-6.629242079725373e-07,-3.3604629834371735e-07,1.557908108074102e-10,-0.0006249999860301614,-0.0003124999930150807,10.026250839233398
1716788095296091402,-6.535186685141525e-07,-3.0887079560670827e-07,1.502947072351546e-10,0.0006249999860301614,-0.0003124999930150807,9.542500495910645
1716788095315898355,2.459290726619656e-07,8.699884546103931e-08,1.4617217158896523e-10,0.0,-0.0003124999930150807,9.948125839233398
1716788095333264896,-8.930040280574758e-07,4.869422696174297e-07,8.958263297831337e-11,-0.0006249999860301614,-0.0006249999860301614,9.800625801086426
1716788095352803942,-6.76936679155915e-07,5.144787564859143e-07,7.513253907909245e-11,-0.0006249999860301614,0.0,9.7631254196167
1716788095370881758,8.553146813028434e-07,-1.5314306267555367e-07,-7.292297321548347e-11,-0.0006249999860301614,-0.0003124999930150807,9.880000114440918
1716788095390085051,-6.980657190069905e-07,5.818492923026497e-07,2.1847468278934912e-11,-0.0012499999720603228,-0.0003124999930150807,9.75
1716788095412198558,8.674112450535176e-07,-9.395986921845179e-08,-7.299384707781797e-11,-0.0006249999860301614,0.0,9.79312515258789
1716788095435476566,9.226637303072494e-07,-8.978204846243898e-08,1.1067001481901428e-11,0.0006249999860301614,0.0,9.721250534057617
1716788095451516492,-6.486939128080849e-07,-7.907826216069225e-08,-7.032234516923808e-11,0.0006249999860301614,0.0003124999930150807,9.91562557220459
1716788095471125416,-6.937488592484442e-07,-4.94319003507826e-08,1.7850852740419754e-10,0.0006249999860301614,0.0,9.806875228881836
1716788095490299219,1.7483584713318123e-07,3.248072459882678e-07,-3.5715271018421646e-11,-0.0006249999860301614,-0.0003124999930150807,9.8100004196167
1716788095510278602,-7.021832857390109e-07,6.926874789314752e-07,2.2359308848862725e-10,0.0012499999720603228,0.0003124999930150807,9.787500381469727
1716788095530325991,8.276680318886065e-07,6.333487956311501e-09,-1.5684159526685448e-10,-0.0006249999860301614,0.0,9.83750057220459
1716788095550355699,8.670628517393197e-07,1.1777105513033348e-08,-1.1412054634618585e-10,0.0,0.0003124999930150807,9.748750686645508
1716788095569962357,-6.674268888673396e-07,2.559048972727851e-09,5.0744509288991324e-11,0.0,0.0,9.863750457763672
1716788095589199869,-8.962842343862576e-07,8.348253643930548e-09,1.876252764265729e-10,-0.0006249999860301614,0.0003124999930150807,9.821249961853027
1716788095606458830,-4.150816224068876e-08,3.621113080498617e-07,2.2843442415432236e-11,-0.0012499999720603228,-0.0006249999860301614,9.823125839233398
1716788095626288961,-4.380601836828646e-08,-3.437871498590539e-07,-1.4137328807617422e-10,0.0006249999860301614,0.0,9.741875648498535
1716788095645632278,8.79927995356411e-07,1.1119054121877525e-08,-8.928476707970034e-11,0.0012499999720603228,0.0006249999860301614,9.835625648498535
1716788095667299354,2.38560140530808e-08,3.583056411571306e-07,-6.57451593166769e-11,-0.0006249999860301614,0.0,9.728750228881836
1716788095686584780,1.3470513593460964e-08,-1.0032112029989548e-08,-2.050294396066521e-12,0.0,-0.0003124999930150807,9.875625610351562
1716788095702732038,4.3365602664380276e-08,-2.934371678975367e-08,-2.089608651043018e-12,0.0,0.0003124999930150807,9.1875
1716788095724821517,7.233803955841722e-08,-4.861961500068901e-08,-1.8114762077511837e-12,0.0012499999720603228,0.0006249999860301614,10.47437572479248
1716788095746670847,-7.760985454297042e-07,-4.1619861690378457e-07,2.1047169215804296e-11,-0.0006249999860301614,0.0,9.866875648498535
1716788095762641850,-7.400658432743512e-07,-4.30405407314538e-07,-1.3463494208387772e-11,0.0,0.0,9.79062557220459
1716788095782770250,2.1063566180146154e-07,-7.640102239747648e-08,4.400471653731586e-11,-0.0006249999860301614,-0.0003124999930150807,9.766875267028809
1716788095804557242,-6.042577069820254e-07,2.8450946842895064e-07,1.0047632170717691e-10,0.0,0.0,9.774374961853027
1716788095820740512,3.5267456155452237e-07,-6.012172804048532e-08,2.8955421393916936e-11,-0.0006249999860301614,0.0,9.820625305175781
1716788095841043784,-4.579980270591477e-07,2.989666825214954e-07,1.010342989826718e-10,0.0006249999860301614,0.0003124999930150807,9.768750190734863
1716788095859066505,4.627897851605667e-07,-3.919008406683133e-08,3.038684581735396e-11,-0.0006249999860301614,-0.0003124999930150807,9.86875057220459
1716788095877746966,-3.990133734532719e-07,3.1617642548553704e-07,1.0538202949161857e-10,0.0018749999580904841,0.0006249999860301614,9.772500038146973
1716788095896478812,-3.7828192489541834e-07,3.143848630315915e-07,6.359679449730038e-11,0.0,0.0003124999930150807,9.800000190734863
1716788095917923207,-3.410528393033019e-07,3.205704217634775e-07,7.595135631532912e-11,0.0012499999720603228,0.0012499999720603228,9.80250072479248
1716788095938083450,6.285890776780434e-07,-1.887056200189363e-08,3.7711125888684194e-11,-0.0012499999720603228,-0.0003124999930150807,9.684375762939453
1716788095958557071,-2.320353758022975e-07,-3.593355017983413e-07,2.5221619931459216e-11,-0.0012499999720603228,-0.0009374999790452421,9.91812515258789
1716788095975148117,-2.2563608581549488e-07,-3.518546805025835e-07,-9.510442433580124e-11,-0.0006249999860301614,-0.0006249999860301614,9.925625801086426
1716788095995746128,-1.840729595414814e-07,-3.417438563246833e-07,-7.179606908991332e-11,-0.0006249999860301614,0.0,9.664375305175781
1716788096018305862,7.362137921518297e-07,1.2586047759555186e-08,4.39124431261817e-11,0.0006249999860301614,0.0,9.848750114440918
1716788096032532987,7.671148409826856e-07,3.3549532929555426e-08,-1.466787802328895e-10,0.0006249999860301614,0.0006249999860301614,9.878125190734863
1716788096054077818,7.540376145698247e-07,3.303637896578948e-08,-1.2008802285912168e-10,0.0006249999860301614,0.0006249999860301614,9.643125534057617
1716788096073345193,-1.0124462050953298e-06,3.297589756812158e-08,6.743407221510012e-11,0.0006249999860301614,0.0006249999860301614,9.910000801086426
1716788096090340884,0.0,0.0,0.0,-0.0006249999860301614,-0.0003124999930150807,9.795625686645508
1716788096108787496,2.9038133675385325e-08,9.676373480260736e-09,-5.999076561034877e-13,0.0012499999720603228,0.0006249999860301614,9.810625076293945
1716788096134422360,-8.284278010251e-07,-3.4153947581216926e-07,2.2036816815784732e-11,0.0,0.0003124999930150807,9.77750015258789
1716788096145155082,1.0666155247918141e-07,1.0432202657284506e-08,-1.18209664279334e-10,-0.0012499999720603228,-0.0003124999930150807,9.876875877380371
1716788096163133018,1.7837193411196495e-07,5.628984833805362e-09,1.1331892021959611e-11,-0.0006249999860301614,0.0,9.76187515258789
1716788096190461079,-6.4465740479136e-07,3.4551899830148614e-07,8.38750735532301e-11,0.0006249999860301614,0.0003124999930150807,9.656562805175781
1716788096205671172,2.914966046319023e-07,-5.414159343075653e-09,-3.888667166052073e-11,-0.0006249999860301614,-0.0003124999930150807,10.039999961853027
1716788096227650451,3.9428144305020396e-07,-3.827091976660313e-09,8.573230667052734e-12,0.0,0.0,9.679375648498535
1716788096247374537,-4.338060932695953e-07,-3.5313192370267643e-07,2.356317224672111e-11,-0.0012499999720603228,-0.0006249999860301614,9.922500610351562
1716788096265543920,-3.8693622173013864e-07,-3.535748192007304e-07,5.6060350805964276e-11,0.0012499999720603228,0.0006249999860301614,9.813125610351562
1716788096287941164,-3.375685935225192e-07,3.5958720445705694e-07,-7.019166498034579e-12,0.0,-0.0003124999930150807,9.741250038146973
1716788096304307956,6.03570981638768e-07,8.225312875254076e-09,4.1733019817691286e-11,0.0,0.0,9.893750190734863
1716788096328399521,-2.3622604317097284e-07,3.579938834263885e-07,8.68371277662483e-11,-0.0018749999580904841,-0.0003124999930150807,9.623750686645508
1716788096346376090,-2.220999419932923e-07,-3.606398593092308e-07,-1.7827711529250223e-11,0.0006249999860301614,0.0003124999930150807,10.026875495910645
1716788096364864048,-2.0009571244372637e-07,3.4801644233084517e-07,1.469437765910797e-10,0.0006249999860301614,0.0003124999930150807,9.765000343322754
1716788096386628686,-1.5609506931468786e-07,-3.3655840070423437e-07,-8.264204598429359e-11,-0.0006249999860301614,-0.0003124999930150807,9.741250038146973
1716788096402941897,7.562670134575455e-07,-5.491732624207657e-10,-2.4128287909319646e-11,0.0012499999720603228,0.0,9.925625801086426
1716788096422544894,-1.0541694450694195e-07,3.5362157291274343e-07,-9.309329696005619e-11,0.0006249999860301614,0.0006249999860301614,9.703750610351562
1716788096450866008,-4.5108912161140324e-08,3.49030727875288e-07,6.493663246009973e-11,0.0018749999580904841,0.0006249999860301614,9.682188034057617
1716788096464006753,-7.922433375995297e-09,3.5025547617806296e-07,8.203875079271228e-11,0.0,0.0003124999930150807,10.069375038146973
1716788096484598956,5.2086150503782846e-08,-3.540593240813905e-07,-3.184341679229874e-12,0.0006249999860301614,0.0006249999860301614,9.682500839233398
1716788096502460635,0.0,0.0,0.0,-0.0006249999860301614,0.0,9.803750038146973
1716788096519477142,4.187685220813364e-08,8.133999251924706e-09,1.4953172033926876e-10,0.0018749999580904841,0.0006249999860301614,9.8881254196167
1716788096541338576,6.81355203369094e-08,2.3760188483379352e-08,-5.5975016288734025e-12,0.0,0.0,9.643125534057617
1716788096559513460,-5.738770596508402e-07,3.8067651075834874e-07,2.330625414881382e-10,-0.0006249999860301614,0.0,9.921250343322754
1716788096583514893,-5.64043318718177e-07,-3.084780075823801e-07,1.4034994000322598e-10,-0.0006249999860301614,0.0,9.670000076293945
1716788096602162195,8.51679331503874e-08,7.505411758756964e-08,2.0547237522539064e-11,0.0006249999860301614,0.0,10.0287504196167
1716788096618773274,-1.4414313227462117e-06,9.147635182671365e-08,1.1399624300079125e-10,0.0006249999860301614,0.0003124999930150807,9.784375190734863
1716788096639293858,1.0638176917154851e-07,1.2163717144630937e-07,5.3287152468328713e-11,-0.0006249999860301614,-0.0003124999930150807,9.736875534057617
1716788096656476772,-5.396199185270234e-07,-2.0965777025594434e-07,1.6180005946164755e-10,-0.0012499999720603228,-0.0006249999860301614,9.870000839233398
1716788096674205945,9.926210395860835e-07,-1.8571302007330814e-07,-1.3118262032207895e-10,-0.0018749999580904841,-0.0006249999860301614,9.801250457763672
1716788096694833655,3.4084726507899177e-07,1.9349614888142241e-07,-3.391587011236652e-11,0.0,-0.0003124999930150807,9.730000495910645
1716788096721130570,-1.4500858469546074e-06,2.1183150522574579e-07,2.079161565138321e-10,0.0,0.0,9.723125457763672
1716788096733708185,5.087650833957014e-08,2.3152426820161054e-07,4.602945802290037e-11,-0.0012499999720603228,-0.0009374999790452421,10.0287504196167
1716788096752744174,2.2105997032895175e-08,2.5630902200646233e-07,-6.250715223199421e-11,0.0006249999860301614,0.0003124999930150807,9.718125343322754
1716788096774670848,3.7153345289198114e-08,2.7473166142044647e-07,8.775222215540168e-11,-0.0006249999860301614,0.0,9.807500839233398
1716788096790367738,9.069590305443853e-07,-5.152954685172517e-08,-1.6927216572870663e-10,0.0,0.0,9.826875686645508
1716788096807641788,3.3451680536700223e-08,2.9424245440168306e-07,-2.0442245118879043e-11,0.0012499999720603228,0.0003124999930150807,9.833125114440918
1716788096828228974,8.046605870504209e-08,-4.010543079857598e-07,-7.853982741945487e-11,0.0,-0.0003124999930150807,9.725625038146973
1716788096850543343,9.234966569238168e-08,-4.0853592508938164e-07,-1.2741467603216705e-10,0.0,-0.0003124999930150807,9.729375839233398
1716788096868433955,9.987695648305817e-07,-3.9022854281256514e-08,-9.016477842127557e-11,-0.0006249999860301614,0.0,9.972500801086426
1716788096885720771,1.011592985378229e-06,-3.248216273732396e-08,-1.3772877283102503e-10,0.0006249999860301614,0.0,9.825000762939453
1716788096905021379,1.285491322278176e-07,3.2091384127852507e-07,-9.642253662178746e-11,0.0012499999720603228,0.0,9.732500076293945
1716788096923374245,1.542435690282673e-08,1.6969674554445646e-09,-9.165257528614967e-13,0.0,0.0006249999860301614,9.813750267028809
1716788096942267985,8.781365181675937e-07,-3.372015839886444e-07,-9.820586011066723e-11,0.0006249999860301614,0.0006249999860301614,9.775625228881836
1716788096964952531,-3.5322727853781544e-08,-6.687502036584192e-07,-2.5964713712411935e-10,-0.0012499999720603228,-0.0006249999860301614,9.738125801086426
1716788096985409150,1.1838420022058926e-08,5.2381622595021327e-08,1.500434221313185e-10,0.0006249999860301614,0.0,9.868124961853027
1716788097000465041,9.087671628549288e-07,-2.7906770583285834e-07,-7.47209655260761e-11,-0.0012499999720603228,-0.0006249999860301614,9.371875762939453
1716788097022071881,-6.643439860454237e-07,4.6201947156987444e-07,5.291651838934541e-11,-0.0006249999860301614,0.0,10.375
1716788097040944170,-3.9040209287577454e-08,1.304003234281481e-07,2.1033466635067555e-11,-0.0006249999860301614,-0.0003124999930150807,9.870000839233398
1716788097062391005,-1.6090324379547383e-06,1.571153376289658e-07,2.3325921749695055e-10,0.0006249999860301614,0.0003124999930150807,9.68375015258789
1716788097081931310,-1.052975306947701e-07,1.899923063319875e-07,6.77480294086763e-12,-0.0012499999720603228,0.0,9.878750801086426
1716788097105557924,-3.661842740143584e-08,2.0205560247177345e-07,8.637550744095002e-12,-0.0006249999860301614,0.0003124999930150807,9.742500305175781
1716788097121051407,-1.7655122919180144e-09,2.117464390494206e-07,2.6602502752742785e-12,0.0012499999720603228,0.0,9.91562557220459
1716788097141927709,8.899372119230975e-07,-1.392960768953344e-07,-9.724360205964899e-11,0.0,0.0,9.703125
1716788097161725198,8.867119731803541e-07,-1.4965736738759006e-07,-1.9095633407850698e-10,0.0,-0.0003124999930150807,9.822500228881836
1716788097179949859,3.212251575845926e-09,2.1040035846908722e-07,6.069687807919166e-11,0.0,0.0,9.85562515258789
1716788097200676011,-4.0818499655870255e-06,4.998157237423584e-05,-0.00020102789858356118,0.03936978802084923,0.003434664336964488,9.768750190734863
1716788097217719738,1.4494241895590676e-06,-0.006403231993317604,-9.05265460460214e-06,11.047831535339355,-0.003416640218347311,9.702661514282227
1716788097239901057,8.006604161892028e-07,-0.009438343346118927,-5.246126420388464e-06,14.166571617126465,3.522823317325674e-05,9.660238265991211
1716788097258690761,-2.6851839152186585e-07,-0.009939007461071014,-5.370615326683037e-06,12.156628608703613,0.00034226945717819035,9.88916015625
1716788097276693920,4.1267804817834985e-07,-0.0094992034137249,-5.216790214035427e-06,11.201420783996582,-0.00028518226463347673,9.833940505981445
1716788097297170522,-6.978729629736335e-07,-0.00846981443464756,-4.838829681830248e-06,10.629973411560059,-0.0005993056111037731,9.717398643493652
1716788097313428975,2.7744492925307895e-08,-0.007612851448357105,-4.638858627004083e-06,10.732627868652344,0.0009635873720981181,9.279743194580078
1716788097336415796,-1.0744203109425143e-06,-0.005832165479660034,-4.293417077860795e-06,7.213905334472656,1.6163456166395918e-05,10.477781295776367
1716788097356990332,3.317130676805391e-07,-0.004403619561344385,-4.087302841071505e-06,7.720412254333496,-0.0009156853193417192,9.820843696594238
1716788097375506790,-4.501703472215013e-07,-0.003170544747263193,-3.8848766052979045e-06,7.01047945022583,0.0003320238902233541,9.831202507019043
1716788097394338044,-5.414729571384669e-07,-0.0021553935948759317,-3.71329701920331e-06,6.445300579071045,-0.00029487916617654264,9.829743385314941
1716788097410250971,6.14354789263416e-08,-0.0014569583581760526,-3.656658236650401e-06,7.212131023406982,-0.0002922126732300967,9.147324562072754
1716788097431880333,-6.569784432031156e-07,-0.0006525868084281683,-3.4732390759018017e-06,4.834685325622559,0.0006373222568072379,10.462264060974121
1716788097451020236,-7.098021796991816e-07,-7.673143409192562e-05,-3.3709641229506815e-06,5.232665061950684,0.00032620629644952714,9.859208106994629
1716788097468360459,5.751482490268245e-07,0.000342785962857306,-3.3183150662807748e-06,5.030684471130371,0.0003256764030084014,9.812002182006836
1716788097492862960,-7.561137067568779e-07,0.0007760041626170278,-3.247204404033255e-06,5.25771427154541,-0.000298548984574154,9.579282760620117
1716788097515571172,-1.0143047290966933e-07,0.000982928555458784,-3.2056525469670305e-06,4.422447681427002,-0.0002990074281115085,9.982969284057617
1716788097528614396,-1.1349208506317154e-07,0.001124445116147399,-3.1768947792443214e-06,4.4314398765563965,1.3554012184613384e-05,9.831164360046387
1716788097549823237,1.366083353104841e-07,0.001251806621439755,-3.167587465213728e-06,4.649715423583984,-0.00029814193840138614,9.657878875732422
1716788097568669871,-6.74130617994706e-08,0.0012834169901907444,-3.169888259435538e-06,4.1922760009765625,0.000325070257531479,9.887929916381836
1716788097586454875,1.8560270120815403e-07,0.0012964557390660048,-3.1780593872099416e-06,4.2606706619262695,0.0006378695252351463,9.787943840026855
1716788097607210135,-1.4806546211332261e-08,0.0012877790722995996,-3.213300487914239e-06,4.342819690704346,1.335278466285672e-05,9.71358585357666
1716788097624383335,-6.712896833960258e-07,0.0012315481435507536,-3.223525936846272e-06,3.9553732872009277,0.0003242329985368997,9.932879447937012
1716788097646299931,-1.6217351017644432e-08,0.001186251756735146,-3.2893703973968513e-06,4.419747352600098,1.3629428394779097e-05,9.61807918548584
1716788097665917076,-6.73973886478052e-07,0.0010970232542604208,-3.3275127861998044e-06,4.018589496612549,0.0003265539708081633,9.89425277709961
1716788097684700845,1.8356459463575447e-08,0.0010133442701771855,-3.3749784051906317e-06,4.025853157043457,1.4040920177649241e-05,9.851197242736816
1716788097704216450,2.8023396225762554e-07,0.0009285553824156523,-3.4426052479830105e-06,4.156826972961426,-0.0006104048807173967,9.764253616333008
1716788097722679019,9.597650887371856e-07,0.0008397101773880422,-3.512791863613529e-06,4.031774520874023,0.0006391232018359005,9.855701446533203
1716788097743096999,1.2240582236699993e-07,0.0007504537934437394,-3.5969228520116303e-06,4.317684650421143,-0.00029705819906666875,9.684215545654297
1716788097765934264,-5.092402943773777e-07,0.0006486233323812485,-3.6872804685117444e-06,4.225130081176758,-0.0006099208258092403,9.77593994140625
1716788097781738244,1.6444144534943916e-07,0.000600198283791542,-3.800524382313597e-06,4.7220964431762695,-0.000607649446465075,9.350160598754883
1716788097801209817,1.7216852654655668e-07,0.0004861837951466441,-3.844061211566441e-06,3.3882787227630615,-0.0003012350935023278,10.60218620300293
1716788097819463395,1.6684329295912903e-07,0.00042020456749014556,-3.916508831025567e-06,4.143631458282471,1.695756691333372e-05,9.794576644897461
1716788097836890190,1.655386654419999e-07,0.00036295250174589455,-3.985201146861073e-06,4.176055431365967,0.0003295891219750047,9.783320426940918
1716788097857378835,-4.951343157699739e-07,0.00030829294701106846,-4.072774572705384e-06,4.3808913230896,1.8071517843054608e-05,9.683143615722656
1716788097875969207,-4.882924713456305e-07,0.00025697052478790283,-4.142028046771884e-06,4.174741744995117,-0.0006080519524402916,9.832744598388672
1716788097897711141,3.9391386508214055e-07,0.00021037408441770822,-4.242917384544853e-06,4.422056674957275,0.00033073691884055734,9.695021629333496
1716788097915298850,1.7220128256667522e-07,0.00016925812815316021,-4.309084488340886e-06,4.042278289794922,1.6447473171865568e-05,9.951659202575684
1716788097936299792,1.5525012031503138e-07,0.00013596135249827057,-4.399008048494579e-06,4.433246612548828,-0.0002941349521279335,9.693788528442383
1716788097954389322,1.411828804975812e-07,0.0001060026916093193,-4.4652829274127726e-06,4.1696553230285645,0.0003317305236123502,9.876555442810059
1716788097976384372,1.2651769054627948e-07,7.921377255115658e-05,-4.556666681310162e-06,4.490697383880615,-0.0002915432269219309,9.682498931884766
1716788097994011199,1.162871043902669e-07,5.6000284530455247e-05,-4.6260170165624e-06,4.117193698883057,0.0012688899878412485,9.935364723205566
1716788098017729817,-5.766347612734535e-07,3.454561374383047e-05,-4.7284243009926286e-06,4.598132133483887,-0.0002909117320086807,9.636153221130371
1716788098036607828,-5.865853722752945e-07,1.535182491352316e-05,-4.80132075608708e-06,4.1209516525268555,1.894784509204328e-05,9.964118003845215
1716788098054535196,6.802915919479346e-08,1.4677375475002918e-06,-4.8801266530063e-06,4.2658233642578125,0.0006447592750191689,9.832101821899414
1716788098074446014,9.578662911735591e-07,-1.0880051377171185e-05,-4.972571332473308e-06,4.4832072257995605,2.095312811434269e-05,9.712514877319336
1716788098096356033,-6.037863613528316e-07,-2.1322641259757802e-05,-5.039344614488073e-06,4.3020782470703125,-0.0006050491356290877,9.837066650390625
1716788098112415535,5.7939651298966055e-08,-3.43763931596186e-05,-5.081599283585092e-06,4.312353610992432,-0.00029257970163598657,10.120182037353516
1716788098132170700,-6.012858762005635e-07,-3.699312583194114e-05,-5.158805379323894e-06,4.464447975158691,0.0009583559585735202,9.70315933227539
1716788098152967721,1.8573217630546424e-08,-3.6848417948931456e-05,-5.254526058706688e-06,4.398243427276611,0.0009602118516340852,9.7282133102417
1716788098171221120,-6.885459811201144e-07,-3.4449414670234546e-05,-5.308651907398598e-06,4.22076416015625,-0.0006033348618075252,9.750262260437012
1716788098190707379,9.116471346715116e-07,-3.3505722967674956e-05,-5.37339201400755e-06,4.4670305252075195,0.0003356029628776014,9.766271591186523
1716788098208199583,2.3550029482066748e-07,-2.8384809411363676e-05,-5.438000698632095e-06,4.178310394287109,2.3765343939885497e-05,9.778420448303223
1716788098228343169,-7.316891128539282e-07,-2.5619610823923722e-05,-5.5180248637043405e-06,4.557067394256592,0.0009636840550228953,9.785550117492676
1716788098254224678,6.086007715566666e-07,-2.0160883650532924e-05,-5.584743121289648e-06,4.297073841094971,-0.00028797966660931706,9.792054176330566
1716788098267486779,-7.0819154984747e-08,-1.5645047824364156e-05,-5.640685230900999e-06,4.385829448699951,-0.00028741403366439044,9.797592163085938
1716788098290050299,1.3559380818151112e-07,-8.785654245002661e-06,-5.710830464522587e-06,4.467082500457764,-0.0005993956583552063,9.800638198852539
1716788098311091527,-7.927432648102695e-07,-2.5640356398071162e-06,-5.768582923337817e-06,4.227086067199707,-0.00028843077598139644,9.804622650146484
1716788098329072956,-1.4852516017072048e-07,3.1213087368087145e-06,-5.844175575475674e-06,4.260836601257324,-0.0006007152260281146,9.805214881896973
1716788098347457447,1.39071755711484e-06,8.976920071290806e-06,-5.911414518777747e-06,4.2845892906188965,0.0003369358310010284,9.80769157409668
1716788098368084262,-8.892315008779406e-07,1.549704757053405e-05,-5.954726020718226e-06,4.419588088989258,2.5299104891018942e-05,9.806309700012207
1716788098387218583,-2.6772295314003713e-07,1.997502113226801e-05,-6.0246616158110555e-06,4.290839195251465,2.4475782993249595e-05,9.807685852050781
1716788098416867390,4.600523482167773e-07,2.987696097989101e-05,-6.110402409831295e-06,4.685837268829346,-0.0005979989655315876,9.805737495422363
1716788098434460341,-9.45135070651304e-07,3.0843744752928615e-05,-6.1731107052764855e-06,3.8370916843414307,2.157473318220582e-05,9.810629844665527
1716788098453483272,6.055345806998957e-07,3.614081651903689e-05,-6.228868187463377e-06,4.27958869934082,-0.00028809596551582217,9.807071685791016
1716788098473499953,5.90855222526443e-07,4.02980440412648e-05,-6.2840103964845184e-06,4.242069721221924,3.077234578086063e-05,9.80774211883545
1716788098491793196,3.2670408245394356e-07,4.632755008060485e-05,-6.34324624115834e-06,4.38956880569458,-0.0002805489639285952,9.806973457336426
1716788098510740645,-1.032757381835836e-06,4.966398773831315e-05,-6.387341272784397e-06,4.194550514221191,-0.00028212578035891056,9.807796478271484
1716788098527795970,-3.887116406531277e-07,5.2220650104572996e-05,-6.444944574468536e-06,4.127050399780273,2.9834904125891626e-05,9.807862281799316
1716788098551311498,-4.359715717328072e-07,5.979180787107907e-05,-6.505452802230138e-06,4.564525604248047,-0.000901749066542834,9.804946899414062
1716788098572217478,-4.7410355819010874e-07,5.894922651350498e-05,-6.568070602952503e-06,4.02202844619751,-0.0009063733159564435,9.80797290802002
1716788098589086068,-1.2233346069479012e-06,6.193188164616004e-05,-6.623055924137589e-06,4.1995062828063965,0.0006573337595909834,9.807809829711914
1716788098609309366,8.531016959523186e-08,6.630835559917614e-05,-6.682867024210282e-06,4.247004985809326,3.2739033485995606e-05,9.806513786315918
1716788098630586148,2.816239828007383e-07,6.773787754354998e-05,-6.7391824813967105e-06,4.186980724334717,3.4485856303945184e-05,9.807208061218262
1716788098644515869,2.619754546628883e-08,6.873314123367891e-05,-6.7831488195224665e-06,4.0494794845581055,-0.0009042585734277964,9.805465698242188
1716788098666986977,2.4874455561985087e-07,7.574849587399513e-05,-6.838880381110357e-06,4.501953125,0.0006624007946811616,9.806916236877441
1716788098690727535,-6.196278263814747e-07,7.653134525753558e-05,-6.896645118104061e-06,4.1444525718688965,3.416375329834409e-05,9.8069486618042
1716788098708969003,-6.572708457497356e-07,7.553501200163737e-05,-6.948583177290857e-06,4.069423675537109,0.0012856469256803393,9.808595657348633
1716788098727800911,1.996704952489381e-07,7.675380766158924e-05,-7.002918664511526e-06,4.116921424865723,0.0006611032295040786,9.806050300598145
1716788098745273887,2.3493912237881887e-07,7.763888424960896e-05,-7.0472756306116935e-06,4.079394340515137,3.579697659006342e-05,9.806097030639648
1716788098766279511,8.892679943528492e-07,8.274210267700255e-05,-7.107422788976692e-06,4.2968950271606445,-0.0005871178582310677,9.806513786315918
1716788098783820850,8.473479056192446e-07,7.997937791515142e-05,-7.153581918828422e-06,3.976862907409668,3.6905621527694166e-05,9.806208610534668
1716788098800554682,-7.757334969937801e-07,8.115403034025803e-05,-7.191745680756867e-06,4.041863441467285,0.0006625631940551102,9.806770324707031
1716788098824563741,9.54365404481905e-08,8.831664308672771e-05,-7.256670414790278e-06,4.476829528808594,-0.0005831882008351386,9.806370735168457
1716788098845212207,-8.171134595613694e-07,8.183123281924054e-05,-7.298980563064106e-06,3.7743308544158936,-0.00027779818628914654,9.808289527893066
1716788098863513512,-8.718890285308589e-07,8.56653496157378e-05,-7.355061370617477e-06,4.22429895401001,0.000666443258523941,9.805374145507812
1716788098882032140,-8.612715305389429e-07,8.866802090778947e-05,-7.41057328923489e-06,4.194281101226807,-0.0002712942659854889,9.806035041809082
1716788098899227752,7.463122528861277e-07,8.470755710732192e-05,-7.456821549567394e-06,3.8342812061309814,-0.0005876293871551752,9.806376457214355
1716788098917937436,7.372109678271954e-08,8.755784074310213e-05,-7.491443739127135e-06,4.191750526428223,-0.0012063778704032302,9.806051254272461
1716788098938038319,-8.758792660046311e-07,8.942851854953915e-05,-7.5315347203286365e-06,4.089250564575195,0.0006674755131825805,9.806147575378418
1716788098959534697,-1.6247001894953428e-06,8.945856825448573e-05,-7.570089110231493e-06,4.066714763641357,4.198648457531817e-05,9.805558204650879
1716788098978020709,6.399916969712649e-07,8.91351664904505e-05,-7.621913027833216e-06,4.011717319488525,0.0006663703825324774,9.808110237121582
1716788098999047343,-7.368230399151798e-07,9.05024353414774e-05,-7.664236363780219e-06,4.111678600311279,-0.0008926918962970376,9.80553150177002
1716788099016669371,-8.034564302761282e-07,8.694098505657166e-05,-7.711915714025963e-06,3.8016796112060547,4.117523712920956e-05,9.806446075439453
1716788099036440248,5.170381314201222e-07,9.079880692297593e-05,-7.766388080199249e-06,4.166647434234619,0.0003578553150873631,9.807369232177734
1716788099058928227,-1.0788650115500786e-06,9.037852578330785e-05,-7.798340448061936e-06,3.954145669937134,-0.00026963389245793223,9.80506706237793
1716788099074538007,-4.3661063386934984e-07,8.982107829069719e-05,-7.84383428253932e-06,3.984114646911621,0.00067028688499704,9.808177947998047
1716788099099627993,-1.1715662822098238e-06,9.515878628008068e-05,-7.905129677965306e-06,4.264090061187744,4.8548259655945e-05,9.80667781829834
1716788099118495392,4.07010276148867e-07,8.72507444000803e-05,-7.946952791826334e-06,3.686589479446411,-0.0002710263943299651,9.806588172912598
1716788099137419116,-3.049213717076782e-07,8.829409489408135e-05,-7.987829121702816e-06,3.9515583515167236,-0.0002655720163602382,9.80698013305664
1716788099155294354,-5.416417252490646e-07,8.974713273346424e-05,-8.035906830627937e-06,3.941558361053467,-0.0005781998625025153,9.806989669799805
1716788099174926240,5.468135100272775e-07,9.121010225499049e-05,-8.077054189925548e-06,4.021524906158447,4.782865653396584e-05,9.806303977966309
1716788099194831879,3.1628349006496137e-07,9.172764112008736e-05,-8.128246008709539e-06,3.964007616043091,0.00036176384310238063,9.807615280151367
1716788099211910968,1.1769953971452196e-06,8.887341391528025e-05,-8.180314580386039e-06,3.7690064907073975,4.666764289140701e-05,9.806544303894043
1716788099230959112,-4.238347628415795e-07,9.20668026083149e-05,-8.218864422815386e-06,4.093973636627197,0.0003633847809396684,9.807509422302246
1716788099250369042,1.1338678405081737e-06,9.053421672433615e-05,-8.263749805337284e-06,3.84397292137146,0.0003600559721235186,9.807112693786621
1716788099270741296,2.4529407482987153e-07,9.14644479053095e-05,-8.300035915453918e-06,3.9764368534088135,-0.0005734477308578789,9.805756568908691
1716788099290096960,-1.3475464584189467e-06,8.976944081950933e-05,-8.330561286129523e-06,3.7939367294311523,-0.0005759751074947417,9.805922508239746
1716788099312856044,1.0962363603539416e-06,9.084100020118058e-05,-8.382454325328581e-06,3.9289040565490723,-0.0005720368935726583,9.80581283569336
1716788099331343409,4.5231547574076103e-07,9.273788600694388e-05,-8.424824955000076e-06,3.9938836097717285,0.0006789967301301658,9.806386947631836
1716788099349518031,-5.225460313340591e-07,8.772827277425677e-05,-8.461411198368296e-06,3.668884515762329,4.932259253109805e-05,9.807306289672852
1716788099367430971,7.029239412759125e-08,8.903655543690547e-05,-8.506824997311924e-06,3.8838515281677246,-0.0011978765251114964,9.805874824523926
1716788099385443789,-5.962543241366802e-07,8.939857798395678e-05,-8.53033361636335e-06,3.833850383758545,-0.00026109511964023113,9.804669380187988
1716788099408735043,3.2032602348408545e-07,9.005061292555183e-05,-8.560996320738923e-06,3.913818836212158,0.0003672945313155651,9.807110786437988
1716788099422915014,9.97500592347933e-07,8.85928311618045e-05,-8.60092131915735e-06,3.7138168811798096,-0.0015106872888281941,9.804790496826172
1716788099442441215,7.383878397604349e-08,9.127150406129658e-05,-8.641181011626031e-06,3.95878529548645,5.763787339674309e-05,9.806458473205566
1716788099465451463,-9.08098115814937e-07,9.201779903378338e-05,-8.68787810759386e-06,3.9087655544281006,5.6676548410905525e-05,9.806510925292969
1716788099484532768,-4.250899721114365e-08,8.907556912163273e-05,-8.73002500156872e-06,3.683765172958374,0.0003657012712210417,9.806087493896484
1716788099504061758,1.387814592135328e-07,8.743945363676175e-05,-8.76750891620759e-06,3.7837328910827637,-0.0002557822153903544,9.807886123657227
1716788099521329912,-1.0183928367268891e-07,8.728873945074156e-05,-8.803912351140752e-06,3.7187318801879883,-0.0005693204584531486,9.806694030761719
1716788099540103570,8.223328791245876e-07,8.825437544146553e-05,-8.840594091452658e-06,3.8287014961242676,0.0013075704919174314,9.80785846710205
1716788099558934116,-7.946376854306436e-07,8.802815864328295e-05,-8.873473234416451e-06,3.7587015628814697,5.6451972341164947e-05,9.807920455932617
1716788099579147214,-1.7959989406790555e-07,8.964684820966795e-05,-8.917179911804851e-06,3.873666524887085,-0.00025232264306396246,9.806581497192383
1716788099603566894,-1.8758241537852882e-07,9.128360397880897e-05,-8.960089871834498e-06,3.888643503189087,0.00037298985989764333,9.805952072143555
1716788099619593214,-2.143905248885858e-07,0.0001017020913423039,-8.99465612747008e-06,4.1636457443237305,6.502973701572046e-05,9.808209419250488
1716788099640540494,-2.110174932568043e-07,8.200130832847208e-05,-9.023743587022182e-06,3.1486093997955322,-0.000575036508962512,9.804739952087402
1716788099658760991,6.354392212415405e-07,8.204919868148863e-05,-9.066927304957062e-06,3.583610773086548,-0.0002551228099036962,9.806233406066895
1716788099678077264,-6.355327286655665e-08,8.468091982649639e-05,-9.09349910216406e-06,3.7685816287994385,-0.00025002070469781756,9.807332038879395
1716788099697711031,-3.607007954542496e-07,8.685978536959738e-05,-9.128010788117535e-06,3.7435810565948486,0.00037454007542692125,9.806729316711426
1716788099727760184,5.566731715589412e-07,8.891907054930925e-05,-9.15551936486736e-06,3.831044912338257,-0.0011864284751936793,9.805416107177734
1716788099736910508,5.77484001951234e-07,0.00010027523967437446,-9.190663149638567e-06,4.173546314239502,0.0006945909117348492,9.806992530822754
1716788099757389700,-3.6498215649771737e-07,8.047475421335548e-05,-9.219724233844317e-06,3.068514108657837,-0.0002606518683023751,9.807965278625488
1716788099777586689,-3.9713276578368095e-07,8.10762430774048e-05,-9.255722943635192e-06,3.5485117435455322,-0.0005644582561217248,9.805048942565918
1716788099794661385,-4.808222229257808e-07,8.382616215385497e-05,-9.289766239817254e-06,3.718482732772827,6.546316581079736e-05,9.806787490844727
1716788099814923905,-5.049054152550525e-07,8.593206439400092e-05,-9.325030077889096e-06,3.6884827613830566,-0.0008725961088202894,9.806814193725586
1716788099832485956,3.9137168528213806e-07,8.374301978619769e-05,-9.35883326746989e-06,3.5484530925750732,-0.0005626431666314602,9.806321144104004
1716788099851921195,3.8164742477420077e-07,8.56262122397311e-05,-9.389201295562088e-06,3.683454751968384,-0.0005601271404884756,9.808079719543457
1716788099873028317,-5.690212105946557e-07,8.774518209975213e-05,-9.419572961633094e-06,3.7884161472320557,0.0006938013830222189,9.806753158569336
1716788099892033001,-6.263563818720286e-07,8.403362153330818e-05,-9.448930541111622e-06,3.473416328430176,6.276122439885512e-05,9.807023048400879
1716788099910492090,-6.599750577152008e-07,8.384687680518255e-05,-9.482825589657295e-06,3.603388786315918,-0.00024547899374738336,9.807546615600586
1716788099928329999,2.1271830519253854e-07,8.452617475995794e-05,-9.512993528915104e-06,3.608389139175415,0.0006921192980371416,9.808168411254883
1716788099948159354,2.3089583578439488e-07,8.559094567317516e-05,-9.549688911647536e-06,3.688354253768921,6.878199201310053e-05,9.805611610412598
1716788099970060392,2.1886789625114034e-07,8.595530380262062e-05,-9.578819117450621e-06,3.658334970474243,-0.0008673164993524551,9.806269645690918
1716788099991294980,8.643103797112417e-07,8.489679748890921e-05,-9.615723683964461e-06,3.568336248397827,0.0010058613261207938,9.807596206665039
1716788100011755051,2.0188012683775014e-07,8.325019007315859e-05,-9.648745617596433e-06,3.5333011150360107,-0.0002447866718284786,9.806388854980469
1716788100030169220,-7.587493087157782e-07,9.04156913748011e-05,-9.675174624135252e-06,3.513301134109497,-0.0002451914770063013,9.806405067443848
1716788100047366987,9.218999252880167e-08,0.00014363284572027624,-9.63704314926872e-06,3.4032628536224365,-0.0008708093082532287,9.806511878967285
1716788100068154425,7.865369155979351e-08,0.00029595900559797883,-9.442132977710571e-06,3.403217315673828,6.851555372122675e-05,9.810903549194336
1716788100087376702,5.2137956174647115e-08,0.0005398384528234601,-9.056739145307802e-06,2.9181268215179443,5.817378041683696e-05,9.810711860656738
1716788100106439116,7.618915986995489e-08,0.0008846319396980107,-8.433718903688714e-06,2.4829797744750977,-0.000576018646825105,9.81423568725586
1716788100132995439,9.07898325408496e-08,0.0014202399179339409,-7.411838396365056e-06,1.9827041625976562,0.0006633474258705974,9.816573143005371
1716788100147237985,-8.086686307251512e-07,0.0018548513762652874,-6.288318218139466e-06,1.1723835468292236,-0.0009158538305200636,9.8153715133667
1716788100165425870,-8.151570227710181e-07,0.0022961487993597984,-5.117859473102726e-06,0.5870024561882019,0.0003213068994227797,9.817708969116211
1716788100186972898,-5.3904305019614185e-08,0.002756363246589899,-3.830210971500492e-06,0.05152194947004318,-0.0006278095534071326,9.818718910217285
1716788100201640931,9.592910146238864e-07,0.0031005730852484703,-2.5933409233402926e-06,-0.47400814294815063,-0.0006391701754182577,9.817166328430176
1716788100220252770,4.201927481517487e-07,0.0034270889591425657,-1.3392894970820635e-06,-0.934620201587677,0.0006007730844430625,9.817388534545898
1716788100239064182,5.764906632066413e-07,0.003663360606878996,-1.1128312138453111e-07,-1.3652989864349365,0.0002788987767416984,9.815031051635742
1716788100260995683,-7.914827051536122e-07,0.003829346038401127,1.0730110489021172e-06,-1.7860352993011475,-0.00035528300213627517,9.813847541809082
1716788100281939728,1.0152874097002496e-07,0.004000809043645859,2.3386073735309765e-06,-2.1769211292266846,-0.0006762916455045342,9.81380844116211
1716788100299266477,1.2428367881511804e-06,0.003734865691512823,3.218407300664694e-06,-2.332550525665283,-5.454997153719887e-05,9.804333686828613
1716788100317077856,6.290720762081037e-07,0.0038271211087703705,4.098798399354564e-06,-2.748243808746338,0.0005614855326712132,9.814867973327637
1716788100338195152,-6.409158572751039e-07,0.003853442147374153,4.983617600373691e-06,-3.009030342102051,0.00024332397151738405,9.811548233032227
1716788100356989694,1.2824411896872334e-06,0.0036733620800077915,5.752502602263121e-06,-3.144726514816284,-7.020235352683812e-05,9.806962966918945
1716788100378357406,5.8601322905360576e-08,0.003608355764299631,6.495684374385746e-06,-3.4204699993133545,-0.0003884762991219759,9.809836387634277
1716788100400467908,1.3212284102337435e-06,0.0034750625491142273,7.204437224572757e-06,-3.6312379837036133,0.0008572196238674223,9.807354927062988
1716788100417790160,7.248750080179889e-07,0.003138478845357895,7.693216502957512e-06,-3.5117859840393066,0.000547390547581017,9.804361343383789
1716788100437814878,1.0468675100128166e-06,0.003106171963736415,8.18862008600263e-06,-3.9624083042144775,-8.496442023897544e-05,9.809027671813965
1716788100455781428,-2.324143508758425e-07,0.0028896061703562737,8.576747859478928e-06,-3.8429298400878906,-8.244434866355732e-05,9.805103302001953
1716788100474887142,6.492200110841395e-09,0.002769012236967683,8.935347977967467e-06,-4.083442687988281,0.0011625605402514338,9.807942390441895
1716788100499763244,1.251698790838418e-06,0.002652188763022423,9.2802993094665e-06,-4.228985786437988,-8.796704059932381e-05,9.807032585144043
1716788100514106205,1.5286813095372054e-06,0.0024282000958919525,9.549100468575489e-06,-4.13943338394165,-8.604153117630631e-05,9.803753852844238
1716788100535431079,2.8464043566600594e-07,0.002328604692593217,9.810091796680354e-06,-4.434937000274658,0.0008456018986180425,9.807769775390625
1716788100558665683,5.340164648259815e-07,0.0020941321272403,1.001365490083117e-05,-4.245326042175293,-0.0007107050041668117,9.802695274353027
1716788100573753437,1.24440958870764e-07,0.0019652117043733597,1.0179295713896863e-05,-4.425707817077637,0.0008483236888423562,9.803675651550293
1716788100593971458,3.8943093727539235e-07,0.001836158917285502,1.0325196853955276e-05,-4.521079063415527,-0.0004034167795907706,9.80407428741455
1716788100614078486,3.4192171938229876e-07,0.0016636785585433245,1.043549127643928e-05,-4.386382579803467,0.0002265703078592196,9.804648399353027
1716788100629191070,5.514762619895919e-07,0.0015441783471032977,1.0503927114768885e-05,-4.4666547775268555,0.0008501242846250534,9.805097579956055
1716788100651329946,1.1176845760019205e-07,0.0014761385973542929,1.0562022907834034e-05,-4.77197790145874,-0.0013406008947640657,9.804732322692871
1716788100673270966,-6.320405532278528e-07,0.0013124555116519332,1.059134319802979e-05,-4.527255535125732,0.0008514925139024854,9.805403709411621
1716788100691864348,-4.866241170020658e-07,0.0011650251690298319,1.0596802894724533e-05,-4.467473983764648,-0.0013348385691642761,9.804098129272461
1716788100709306881,-3.587427670481702e-07,0.0010683960281312466,1.059323585650418e-05,-4.547672748565674,0.0008536012028343976,9.804570198059082
1716788100727371528,-2.198850239665262e-07,0.0009585542720742524,1.0549852959229611e-05,-4.49783992767334,-0.00039540231227874756,9.804533004760742
1716788100746973992,-8.938305740002761e-08,0.0008882351103238761,1.0502792974875774e-05,-4.7380170822143555,-0.0007121820817701519,9.803630828857422
1716788100768182163,8.496641044075659e-07,0.0007858423050493002,1.0445536645420361e-05,-4.628189563751221,0.00022968859411776066,9.803638458251953
1716788100787768843,4.8636419336389736e-08,0.0006697295466437936,1.036017420119606e-05,-4.408315658569336,0.0002335620520170778,9.804390907287598
1716788100807559076,1.3814127441946766e-07,0.0005882115801796317,1.026278823701432e-05,-4.558435440063477,0.00023337370657827705,9.804832458496094
1716788100825687320,2.0463517103053164e-07,0.0004972725291736424,1.0154808478546329e-05,-4.398534297943115,-0.0010138637153431773,9.80367660522461
1716788100844928412,2.696951639791223e-07,0.0004239801492076367,1.0040325832960662e-05,-4.518611431121826,-7.836028089514002e-05,9.802909851074219
1716788100862054802,3.3250628916903224e-07,0.0003449691866990179,9.927743121806998e-06,-4.318675518035889,-0.00038510258309543133,9.804308891296387
1716788100882751481,3.841981310870324e-07,0.00028088988619856536,9.780795153346844e-06,-4.518733501434326,-0.0003883321478497237,9.805355072021484
1716788100898929440,-2.6938337782667077e-07,0.00020664917246904224,9.647761544329114e-06,-4.238770008087158,0.0018037452828139067,9.804963111877441
1716788100917494160,-2.1998856425398117e-07,0.0001416806480847299,9.485836017120164e-06,-4.328800201416016,-0.0006953386473469436,9.804244995117188
1716788100938768249,-2.45944221433092e-07,7.291604561032727e-05,9.30652822717093e-06,-4.413801193237305,-7.169692253228277e-05,9.804793357849121
1716788100956078602,1.3414352224572212e-06,1.0169515007873997e-05,9.15270356927067e-06,-4.038821697235107,-0.0006906785420142114,9.804495811462402
1716788100975928582,-2.332125887960501e-07,-4.94288069603499e-05,8.963808795670047e-06,-4.238823413848877,-0.0006938745500519872,9.806191444396973
1716788100995428580,4.1864339550556906e-07,-0.00010374726844020188,8.786134458205197e-06,-4.038801670074463,0.0008739209151826799,9.805129051208496
1716788101013351980,-2.6645398065738846e-07,-0.00015439634444192052,8.603099558968097e-06,-4.048775672912598,-0.0013137799687683582,9.805130958557129
1716788101033142337,3.9053330169736e-07,-0.00020634708926081657,8.414696822001133e-06,-4.018740177154541,0.0008764185477048159,9.80642318725586
1716788101050334211,-1.1986073786829365e-06,-0.0002426862920401618,8.235921086452436e-06,-3.818697690963745,-0.0006831464706920087,9.80599308013916
1716788101072338183,-1.2778124300893978e-06,-0.0003036548150703311,8.028804586501792e-06,-4.048639297485352,-6.167345418361947e-05,9.80456256866455
1716788101096942393,2.1720364884458832e-07,-0.00033474434167146683,7.846156222512946e-06,-3.7185728549957275,0.000568229123018682,9.806754112243652
1716788101108085479,-4.7639196054660715e-07,-0.00035859274794347584,7.672801984881517e-06,-3.58851957321167,-0.0009904454927891493,9.805636405944824
1716788101129349928,1.1195462690238855e-07,-0.00041853453149087727,7.4674853749456815e-06,-3.8984313011169434,-5.744429290643893e-05,9.80602741241455
1716788101151832021,9.882035101327347e-07,-0.00042961418512277305,7.284283583430806e-06,-3.4383583068847656,0.00026176535175181925,9.806448936462402
1716788101164959700,6.220371062681807e-08,-0.0004623339045792818,7.1124622991192155e-06,-3.558279037475586,-5.055619476479478e-05,9.805124282836914
1716788101186272587,-6.370315759340883e-07,-0.0005076795932836831,6.90938213665504e-06,-3.5881807804107666,-5.093846993986517e-05,9.80638599395752
1716788101205754718,-7.419480851922344e-08,-0.0005254989955574274,6.726067113049794e-06,-3.37807559967041,-0.0006731035537086427,9.8059720993042
1716788101223499821,1.236067248555628e-07,-0.0005421533714979887,6.544730695168255e-06,-3.277984380722046,0.0005783663946203887,9.809210777282715
1716788101243734799,-1.1035962188543635e-06,-0.0005749655538238585,6.3548704929417e-06,-3.3078675270080566,0.0005777651094831526,9.80672550201416
1716788101261101289,-2.795556213186501e-07,-0.0005775726749561727,6.189269242895534e-06,-3.0777735710144043,-0.0003549586981534958,9.806940078735352
1716788101279541950,-1.0142300652660197e-06,-0.0006069598020985723,6.008100172039121e-06,-3.1776647567749023,0.0008936721715144813,9.808145523071289
1716788101303717647,2.3750541799927305e-07,-0.0006371017079800367,5.820477326778928e-06,-3.1375327110290527,0.00026919000083580613,9.806343078613281
1716788101319546607,-4.883795554633252e-07,-0.0006362358690239489,5.6497997320548166e-06,-2.937417984008789,-0.00035317125730216503,9.807156562805176
1716788101338398471,-5.472991801980243e-07,-0.0006535087013617158,5.480794243339915e-06,-2.9372923374176025,-0.0006641243817284703,9.80656909942627
1716788101355686101,3.0438727094406204e-07,-0.0006557101150974631,5.334922207111958e-06,-2.7971837520599365,-0.00034980004420503974,9.807953834533691
1716788101376422330,2.2680241329453565e-07,-0.0006931661628186703,5.152508038008818e-06,-2.877042293548584,0.0005866369465366006,9.80731201171875
1716788101395987366,1.972157974705624e-07,-0.0006947154179215431,4.978236574970651e-06,-2.6669116020202637,-3.55734555341769e-05,9.807498931884766
1716788101412472212,-9.154770452823868e-08,-0.0008281157352030277,4.835861091123661e-06,-3.1567747592926025,0.0015206485986709595,9.805947303771973
1716788101432513184,-8.441589898211532e-07,-0.0006694123730994761,4.664820608013542e-06,-2.0566482543945312,-0.0003403620794415474,9.812359809875488
1716788101454714923,-1.977578989453832e-08,-0.0007077722693793476,4.490162609727122e-06,-2.5764987468719482,-3.314009518362582e-05,9.807044982910156
1716788101469735211,-1.0337537332816282e-06,-0.000822399859316647,4.360145794635173e-06,-2.796367645263672,-3.5999357351101935e-05,9.806312561035156
1716788101491992381,-2.0850883686307498e-07,-0.0006930467206984758,4.1854877963487525e-06,-1.996219515800476,-2.6167417672695592e-05,9.811861991882324
1716788101511450463,-1.1771739991672803e-06,-0.0006823096191510558,4.051815722050378e-06,-2.1561026573181152,0.0005968078039586544,9.809285163879395
1716788101527756551,3.142326363558823e-07,-0.0007065556710585952,3.923154054064071e-06,-2.2359766960144043,-0.0006541729671880603,9.808014869689941
1716788101546875703,2.7923803713747475e-07,-0.0007264127489179373,3.7842182791791856e-06,-2.1958460807800293,0.000283870380371809,9.80806827545166
1716788101564849600,2.5172806772388867e-07,-0.0007223771535791457,3.6660867408500053e-06,-2.085721254348755,-0.0006522374460473657,9.808785438537598
1716788101587839779,-5.18268279847689e-07,-0.0007734291139058769,3.5022655993088847e-06,-2.1855432987213135,0.0009100869647227228,9.808141708374023
1716788101606818828,-6.044966198714974e-07,-0.0007238229736685753,3.3698524930514395e-06,-1.8654087781906128,0.0009137261076830328,9.810848236083984
1716788101625673013,-1.675522387500905e-09,-0.0007259951671585441,3.2459627163916593e-06,-1.8952767848968506,0.00028837824356742203,9.808358192443848
1716788101645610252,-7.651445912415511e-07,-0.0007331804954446852,3.114575520157814e-06,-1.8551356792449951,-0.000336294062435627,9.808405876159668
1716788101663129052,7.524759553234617e-07,-0.0007255276432260871,2.998024228872964e-06,-1.7350064516067505,0.0006026675109751523,9.810991287231445
1716788101680893921,7.380455144812004e-07,-0.0007231698837131262,2.883687329813256e-06,-1.7348793745040894,-0.0006472610984928906,9.807888984680176
1716788101700217439,-2.0136185696628672e-07,-0.0007370300590991974,2.7570540623855777e-06,-1.6847388744354248,0.0006032892852090299,9.809187889099121
1716788101721047012,-2.6141668740820023e-07,-0.0007449507247656584,2.6360646643297514e-06,-1.6445813179016113,-0.0006462924065999687,9.807358741760254
1716788101741622693,-7.98710644289713e-08,-0.0007304064929485321,2.5093304429901764e-06,-1.5144362449645996,-1.9807142962235957e-05,9.809941291809082
1716788101760110772,3.3880871797009604e-07,-0.0007121156668290496,2.394782086412306e-06,-1.4243108034133911,-0.0006429125787690282,9.8100004196167
1716788101781598006,-1.0504595593374688e-06,-0.0007152659818530083,2.290491693202057e-06,-1.4041799306869507,0.0009196840110234916,9.809402465820312
1716788101796733243,4.66774224605615e-07,-0.0007110414444468915,2.18699756260321e-06,-1.3340495824813843,0.00029547070153057575,9.810074806213379
1716788101815514248,-1.1444637948443415e-06,-0.0007102936506271362,2.090440375468461e-06,-1.2739238739013672,-1.64194298122311e-05,9.809491157531738
1716788101834666580,-1.1872932645928813e-06,-0.0007098384667187929,1.9816950498352526e-06,-1.2637933492660522,0.0006086831563152373,9.8095121383667
1716788101853955789,3.6543048054227256e-07,-0.0007169575546868145,1.8716247041083989e-06,-1.1836521625518799,-0.0006402840954251587,9.80955982208252
1716788101874071368,-5.805161436001072e-07,-0.0007049539708532393,1.766802938618639e-06,-1.1135166883468628,0.0009229545830748975,9.810226440429688
1716788101891550110,-6.494327067230188e-07,-0.0006829436752013862,1.680054992903024e-06,-1.023396372795105,0.001236352720297873,9.810271263122559
1716788101909219513,2.1053426735306857e-07,-0.0006890016375109553,1.5853615877858829e-06,-1.003275990486145,-0.0006383851286955178,9.809041023254395
1716788101929396754,1.8684058034068585e-07,-0.0007014358998276293,1.489219130235142e-06,-0.9831399917602539,-0.0006381234852597117,9.809061050415039
1716788101946039547,-7.54492020860198e-07,-0.0006699804216623306,1.4010136055730982e-06,-0.8530312776565552,0.000300782237900421,9.812237739562988
1716788101965764819,7.941044941617292e-07,-0.0006906968774273992,1.3025374983044458e-06,-0.8529000282287598,0.0012383459834381938,9.81037425994873
1716788101987231028,8.256529326899908e-07,-0.0007093491149134934,1.1851157069031615e-06,-0.8227483630180359,-0.00032363837817683816,9.809770584106445
1716788102004768141,-8.109234386211028e-07,-0.000656329037155956,1.0986739198415307e-06,-0.6626334190368652,-9.538717677060049e-06,9.809823036193848
1716788102023762786,5.726912988279764e-08,-0.0006772044580429792,9.993574394684401e-07,-0.6625031232833862,0.0006154740112833679,9.811081886291504
1716788102044418676,-8.952520147431642e-07,-0.0006797448149882257,9.161786351796763e-07,-0.602367103099823,-0.0006338729290291667,9.810480117797852
1716788102061529914,-9.411886594534735e-07,-0.0006474496331065893,8.367806572096015e-07,-0.5822567939758301,-0.0009462301386520267,9.807991981506348
1716788102080074958,-1.0051448953163344e-06,-0.0006594637525267899,7.501338927795587e-07,-0.5121370553970337,-8.044929927564226e-06,9.809889793395996
1716788102108617319,5.121539174979262e-07,-0.0006894589751027524,6.385661777130736e-07,-0.501974880695343,-7.917426046333276e-06,9.808961868286133
1716788102119199447,7.616066568516544e-07,-0.0007519395439885557,5.734636943088844e-07,-0.41186001896858215,-0.00031929227407090366,9.809297561645508
1716788102139650284,-1.0865478543564677e-06,-0.0006144362268969417,4.701027478404285e-07,-0.261740505695343,0.0006199901108630002,9.813079833984375
1716788102158447721,-1.1863637610076694e-06,-0.0006146595696918666,3.930745720026607e-07,-0.2716299891471863,-0.0015678252093493938,9.80870532989502
1716788102176037110,-1.2158093340985943e-06,-0.0006234421744011343,3.194721500676678e-07,-0.24152059853076935,0.00030749887810088694,9.810587882995605
1716788102195103160,-3.39514826919185e-07,-0.0006367254536598921,2.3818107308670733e-07,-0.19140024483203888,-4.4686958062811755e-06,9.809349060058594
1716788102211518528,3.4738451404336956e-07,-0.0007452238933183253,1.613284865698006e-07,-0.1712849736213684,-4.201746833132347e-06,9.806853294372559
1716788102228480812,-3.30084901634109e-07,-0.0005949746118858457,9.283822777206296e-08,-0.031186390668153763,-0.0012526903301477432,9.812496185302734
1716788102251503020,5.425330300568021e-07,-0.0006424437160603702,-1.0676832751244092e-08,-0.051039665937423706,0.0003096180153079331,9.808744430541992
1716788102269268075,-3.960034860028827e-07,-0.0006058905273675919,-8.881839619334642e-08,0.03906470164656639,-2.012656750594033e-06,9.810004234313965
1716788102289151547,-1.3621825019072276e-06,-0.0006215032772161067,-1.6407713587796025e-07,0.06918493658304214,-1.864959017439105e-06,9.809381484985352
1716788102308485290,2.033666106626697e-07,-0.000617646670434624,-2.411564139492839e-07,0.10930506139993668,-1.3148697917131358e-06,9.81000804901123
1716788102328804457,1.8329289730445453e-07,-0.0006204255041666329,-3.2517158388145617e-07,0.1794251948595047,-0.0003130983095616102,9.810635566711426
1716788102345856365,1.1210223647140083e-06,-0.0005955323576927185,-3.96446466766065e-07,0.2295297235250473,1.2277909888780414e-07,9.810011863708496
1716788102370895446,-1.3910922689319705e-06,-0.0006159465410746634,-4.7640310185670387e-07,0.2596498727798462,0.0006254667532630265,9.81063461303711
1716788102382537240,-8.076381163846236e-07,-0.000719916308298707,-5.397102995630121e-07,0.3597649335861206,-0.0012485451297834516,9.807509422302246
1716788102403452766,5.2081063017794804e-08,-0.0005694043939001858,-6.32185447102529e-07,0.30987977981567383,0.00031340631539933383,9.813754081726074
1716788102421465964,-6.510259709102684e-07,-0.0005613354151137173,-7.003219479884137e-07,0.3999790847301483,-0.00031063976348377764,9.810001373291016
1716788102442256179,2.441391870888765e-07,-0.0005896936636418104,-7.754511557322985e-07,0.5000994205474854,3.09565439238213e-06,9.810620307922363
1716788102461869184,8.865667311397374e-09,-0.0005808603018522263,-8.584655688537168e-07,0.4902116358280182,2.9867098874092335e-06,9.809989929199219
1716788102480261859,-7.032866164990992e-07,-0.0005741608911193907,-9.36675860430114e-07,0.5503146052360535,-0.0003089059318881482,9.809983253479004
1716788102502354421,-3.6869007402628995e-08,-0.000597552745603025,-1.0188206260863808e-06,0.6404455900192261,4.690114110417198e-06,9.811222076416016
1716788102524666397,-5.837630112637271e-08,-0.0005613944376818836,-1.0963393606289173e-06,0.6405449509620667,0.00031720215338282287,9.810589790344238
1716788102540459873,-1.0426589369672001e-06,-0.0005756947793997824,-1.1738283092199708e-06,0.7206571698188782,0.000942921731621027,9.809951782226562
1716788102559319531,7.310324576792482e-07,-0.0005662212497554719,-1.246319243364269e-06,0.7207611799240112,-0.00030702631920576096,9.808693885803223
1716788102578728280,7.18274293376453e-07,-0.0005685960059054196,-1.3202318314142758e-06,0.8008700013160706,0.0006314187194220722,9.809929847717285
1716788102597477673,-8.63853699684114e-07,-0.0005654474371112883,-1.3945267482995405e-06,0.8409752249717712,-0.0009306467254646122,9.80929183959961
1716788102617050345,6.490120085800299e-07,-0.0005637229769490659,-1.4780506489842082e-06,0.9310807585716248,0.0006328354356810451,9.811773300170898
1716788102639628769,-1.8704231479205191e-06,-0.0005732067511416972,-1.555773110339942e-06,0.9612033367156982,8.043171874305699e-06,9.809883117675781
1716788102655911086,1.2402472293615574e-06,-0.0005431174067780375,-1.6280092722809059e-06,0.9612994194030762,-0.0003043769975192845,9.811123847961426
1716788102673926019,-8.425251252219823e-08,-0.0005469940369948745,-1.7031613879225915e-06,1.0413953065872192,0.0006340618710964918,9.811102867126465
1716788102691102086,-3.215045012439077e-07,-0.0005461153341457248,-1.7758826516001136e-06,1.0814874172210693,0.0003220323415007442,9.809836387634277
1716788102710919768,-3.7874988834118994e-07,-0.0005526129389181733,-1.845079850681941e-06,1.131588101387024,0.0009475253755226731,9.80981731414795
1716788102726864874,4.858372903981945e-07,-0.0005389670841395855,-1.909201500893687e-06,1.111677885055542,-0.0006151905399747193,9.80793571472168
1716788102748728170,4.691096364695113e-07,-0.0005604475154541433,-1.9940641777793644e-06,1.2617995738983154,0.00032399187330156565,9.80851936340332
1716788102768475414,-4.7551822035529767e-07,-0.0005297285970300436,-2.0689533357654e-06,1.221901774406433,1.095599236577982e-05,9.811014175415039
1716788102789401651,1.0716454426074051e-06,-0.0005289691034704447,-2.1456944523379207e-06,1.2920092344284058,-0.0003000161668751389,9.8103609085083
1716788102809400496,-5.357210852707794e-07,-0.0005114496452733874,-2.2204135348147247e-06,1.302103877067566,0.00032500430825166404,9.810346603393555
1716788102827185563,3.23748650998823e-07,-0.0005111525533720851,-2.290158363393857e-06,1.4022010564804077,1.3652579582412727e-05,9.810311317443848
1716788102848358727,2.829947618465667e-07,-0.0005176814738661051,-2.3656182293052552e-06,1.4123095273971558,-0.00029876321787014604,9.809043884277344
1716788102866519365,-6.381545745171024e-07,-0.0004924454842694104,-2.439048557789647e-06,1.432396411895752,0.0006389391492120922,9.810901641845703
1716788102887082335,2.0865840610895248e-07,-0.0005077208625152707,-2.5247006760764634e-06,1.5024991035461426,-0.00029778628959320486,9.80961799621582
1716788102911501840,8.601228955740226e-07,-0.0005231554969213903,-2.635185637700488e-06,1.6326253414154053,0.00032886318513192236,9.80925178527832
1716788102928974311,2.1406080463748367e-07,-0.00047548714792355895,-2.7046653485740535e-06,1.46270751953125,0.0003269656153861433,9.810848236083984
1716788102948636242,-7.110717774594377e-07,-0.0004977901699021459,-2.788751771731768e-06,1.6828029155731201,0.0012669957941398025,9.809520721435547
1716788102967429208,1.6649698864057427e-07,-0.0004932103911414742,-2.8675185603788123e-06,1.6328893899917603,-0.0015460595022886992,9.8088960647583
1716788102986453730,1.1377165520798371e-07,-0.0005038193776272237,-2.953352350232308e-06,1.7829877138137817,0.0012690835865214467,9.80945873260498
1716788103007857917,8.54449666576329e-08,-0.0005129899363964796,-3.0543333195964806e-06,1.7930965423583984,1.9225779396947473e-05,9.80943489074707
1716788103031364288,7.519939799749409e-07,-0.0005173464887775481,-3.1657173167332076e-06,1.8532147407531738,0.00033255439484491944,9.80970573425293
1716788103049720925,-8.437516498815967e-07,-0.0004858971806243062,-3.2518396437808406e-06,1.7333022356033325,1.8515351257519796e-05,9.808792114257812
1716788103068755911,6.694223202430294e-07,-0.000496122520416975,-3.341432147863088e-06,1.9433951377868652,0.0003335672663524747,9.810578346252441
1716788103087172707,-5.5156156975044723e-08,-0.0004946995759382844,-3.4226607112941565e-06,1.8934834003448486,-0.0009171321289613843,9.808703422546387
1716788103107186598,5.931161695116316e-07,-0.000509109057020396,-3.515094704198418e-06,2.043583631515503,2.2234107746044174e-05,9.808003425598145
1716788103125852896,-3.363713858561823e-07,-0.0004981463425792754,-3.6015014757140307e-06,1.9736744165420532,-0.0002911617048084736,9.80988597869873
1716788103143266777,5.456444114315673e-07,-0.0004972073365934193,-3.679057954286691e-06,2.0437607765197754,2.223299816250801e-05,9.809842109680176
1716788103164960406,5.048760840509203e-07,-0.0005167006165720522,-3.7832362522749463e-06,2.2138688564300537,0.0006504363263957202,9.810378074645996
1716788103184207148,5.01777833505912e-07,-0.0005018112133257091,-3.8810271689726505e-06,2.1239633560180664,2.431726716167759e-05,9.810393333435059
1716788103203143044,-2.0021813895709784e-07,-0.000501809932757169,-3.9728174670017324e-06,2.2040555477142334,0.000650283764116466,9.809089660644531
1716788103223526779,-2.1940428496236564e-07,-0.0005099974805489182,-4.071019247930963e-06,2.2941582202911377,0.001276459894143045,9.809028625488281
1716788103241850474,-2.6077955794789887e-07,-0.0005030122702009976,-4.176537458988605e-06,2.2842519283294678,-0.0005987153854221106,9.809011459350586
1716788103259896820,-2.8465214541029127e-07,-0.000495036831125617,-4.268675638741115e-06,2.2843339443206787,0.0003387943434063345,9.809617042541504
1716788103279582347,-3.307122824480757e-07,-0.0005151632940396667,-4.377775439934339e-06,2.4344358444213867,2.944449988717679e-05,9.807650566101074
1716788103300811579,1.913446567414212e-06,-0.0005121611175127327,-4.4942175918549765e-06,2.434537887573242,-0.0005954023217782378,9.808250427246094
1716788103318521840,-3.349635733229661e-07,-0.000505328644067049,-4.589495347318007e-06,2.4046313762664795,2.9138847821741365e-05,9.808241844177246
1716788103337200429,2.7893386800315056e-07,-0.0005067863967269659,-4.690991772804409e-06,2.5147244930267334,3.059523805859499e-05,9.809414863586426
1716788103357680376,2.1228557045560592e-07,-0.0005074104992672801,-4.791947048943257e-06,2.514817237854004,-0.0009070042287930846,9.807516098022461
1716788103372159719,2.0260351618617278e-07,-0.000613214448094368,-4.882551820628578e-06,3.1249148845672607,-0.0002738477778621018,9.806560516357422
1716788103392510974,-5.23816936492949e-07,-0.00048360065557062626,-4.991584773961222e-06,2.185009717941284,2.7196934752282687e-05,9.811386108398438
1716788103410416683,-5.821537456540682e-07,-0.000488811347167939,-5.103128842165461e-06,2.5950958728790283,0.0003452739620115608,9.808029174804688
1716788103431277142,8.498884085383906e-08,-0.0005137186963111162,-5.228429472481366e-06,2.7951996326446533,3.5629727790364996e-05,9.80789566040039
1716788103450720665,1.6597379470795204e-08,-0.0005059026880189776,-5.347581918613287e-06,2.715296506881714,-0.001215534284710884,9.80728530883789
1716788103468913510,1.5517961173827644e-06,-0.0005032376502640545,-5.455779955809703e-06,2.715386152267456,-0.0015279563376680017,9.808510780334473
1716788103485809682,-3.530550429786672e-08,-0.0005008690641261637,-5.552185029955581e-06,2.845468521118164,0.000661285244859755,9.80966567993164
1716788103507493134,8.267568887276866e-07,-0.0005207969225011766,-5.667528057529125e-06,2.9955692291259766,0.00035252977977506816,9.807676315307617
1716788103524692306,-7.979174938554934e-07,-0.0005201140302233398,-5.780201718152966e-06,2.9356672763824463,-0.000898418016731739,9.8076810836792
1716788103545003324,7.248817723848333e-07,-0.0005186437047086656,-5.914384473726386e-06,2.975767135620117,-0.0005852880422025919,9.808252334594727
1716788103563956224,-8.901739647626528e-07,-0.0005189149524085224,-6.036417744326172e-06,2.995865821838379,-0.001210101880133152,9.806960105895996
1716788103581954735,5.954741482128156e-07,-0.0005113544757477939,-6.152744845167035e-06,3.035956621170044,0.0009795564692467451,9.808158874511719
1716788103599881807,-2.8623850312214927e-07,-0.0005152054945938289,-6.267519438551972e-06,3.126049041748047,-0.0008940130355767906,9.808074951171875
1716788103617555370,5.506378784048138e-07,-0.000517945212777704,-6.39580184724764e-06,3.1661386489868164,-0.0005809552385471761,9.80802059173584
1716788103635747498,-3.6666665437223855e-07,-0.0005181623855605721,-6.5051794990722556e-06,3.1662275791168213,4.404163337312639e-05,9.807991981506348
1716788103653549040,-1.0750691217253916e-06,-0.000523015100043267,-6.618103725486435e-06,3.2463197708129883,4.51861196779646e-05,9.807286262512207
1716788103671048396,-0.005676215514540672,-0.00045279698679223657,-0.036191362887620926,3.206833839416504,-0.9276614785194397,9.807842254638672
1716788103692514958,-0.01612423174083233,-0.00018783379346132278,-0.12154074758291245,2.994025468826294,-2.932448387145996,9.810710906982422
1716788103710375705,-0.00748585956171155,-0.00032042822567746043,-0.11222147196531296,3.046788215637207,-2.1750900745391846,9.806169509887695
1716788103727638241,-1.5018714293546509e-05,-0.0004065138637088239,-0.08025351911783218,3.3272993564605713,-0.10767412185668945,9.8064546585083
1716788103746465129,0.0032582127023488283,-0.0004680606652982533,-0.056058261543512344,3.465430736541748,0.1776513308286667,9.80648422241211
1716788103765388580,0.004132535774260759,-0.0004953688476234674,-0.03879435360431671,3.5250563621520996,0.22079040110111237,9.808913230895996
1716788103783954272,0.0038651376962661743,-0.0004973174072802067,-0.027268696576356888,3.445255994796753,0.19650766253471375,9.808284759521484
1716788103802681502,0.00328635610640049,-0.0004922225489281118,-0.019186457619071007,3.4857447147369385,0.14665812253952026,9.807571411132812
1716788103823639702,0.0026428860146552324,-0.00048797045019455254,-0.012930537573993206,3.6463162899017334,0.0944739282131195,9.808649063110352
1716788103842343158,0.0019861338660120964,-0.000454947556136176,-0.009030580520629883,3.486631155014038,0.06933841109275818,9.808724403381348
1716788103862003219,0.0015275244368240237,-0.0004342207976151258,-0.006289979442954063,3.5870838165283203,0.031722500920295715,9.807985305786133
1716788103879360224,0.0011750638950616121,-0.0004024160443805158,-0.0045737456530332565,3.447296380996704,0.016802934929728508,9.808061599731445
1716788103898805034,0.000949535402469337,-0.000389887485653162,-0.0032122437842190266,3.707594394683838,-0.00393918389454484,9.80846118927002
1716788103916928573,0.0007542838575318456,-0.0003612994041759521,-0.0023037397768348455,3.587660074234009,-0.004195522982627153,9.808527946472168
1716788103933249753,0.0007863990613259375,-0.0004147297004237771,-0.0016729270573705435,4.288036823272705,-0.03165523335337639,9.806089401245117
1716788103953096232,0.0004931286675855517,-0.00029817374888807535,-0.001185540109872818,2.947584390640259,0.01292493473738432,9.808978080749512
1716788103973532803,0.0004382038314361125,-0.00028595991898328066,-0.0008200539741665125,3.657940149307251,-0.012919461354613304,9.807779312133789
1716788103990000973,0.0003749838506337255,-0.00025804920005612075,-0.000611989526078105,3.4279377460479736,-0.009504386223852634,9.806694984436035
1716788104008239067,0.000349876907421276,-0.0002477956877555698,-0.0004501075600273907,3.5880191326141357,-0.012175684794783592,9.807802200317383
1716788104028152337,0.0003244664112571627,-0.000234212217037566,-0.00032040293444879353,3.7080507278442383,-0.010252469219267368,9.805816650390625
1716788104043940630,0.0003554762515705079,-0.000257632666034624,-0.00024005457817111164,4.268156051635742,-0.01360396109521389,9.807855606079102
1716788104064795664,0.0002543162554502487,-0.00018719534273259342,-0.00017143756849691272,2.987957715988159,0.0035641747526824474,9.808237075805664
1716788104083041026,0.00023486743157263845,-0.0001705539907561615,-0.0001274662499781698,3.5280892848968506,-0.003753961995244026,9.80904483795166
1716788104101772119,0.00022214293130673468,-0.000159216855536215,-9.574796422384679e-05,3.588135242462158,-0.004975712392479181,9.807109832763672
1716788104121381265,0.0002086106687784195,-0.0001474743476137519,-7.099462527548894e-05,3.6581592559814453,-0.004224609583616257,9.806418418884277
1716788104140772571,0.00019074752344749868,-0.0001327926729572937,-5.3736304835183546e-05,3.598158836364746,-0.0016617682995274663,9.807706832885742
1716788104157752665,0.00017231371020898223,-0.00011712742707459256,-4.262492439011112e-05,3.488168239593506,-0.0011768281692638993,9.807165145874023
1716788104176480850,0.00016299958224408329,-0.00010829985694726929,-3.376884342287667e-05,3.648200035095215,-0.0017183818854391575,9.806403160095215
1716788104203586102,0.00015150397666729987,-9.743766713654622e-05,-2.6752952180686407e-05,3.6682181358337402,-0.0011713136918842793,9.806378364562988
1716788104212762007,0.0001648475299589336,-0.00010209174797637388,-2.249331919301767e-05,4.188283443450928,-0.0033980761654675007,9.805946350097656
1716788104235118175,0.00011877775978064165,-7.02714896760881e-05,-1.8421220374875702e-05,3.0681793689727783,0.002832400845363736,9.806859970092773
1716788104253842479,0.00010441593622090295,-5.872963083675131e-05,-1.6133371900650673e-05,3.408233642578125,0.00034328913898207247,9.807826042175293
1716788104270833607,9.764597052708268e-05,-5.199090446694754e-05,-1.4453600670094602e-05,3.5481104850769043,0.013004868291318417,9.804587364196777
1716788104289161156,9.232935553882271e-05,-4.469498890102841e-05,-1.3154860425856896e-05,3.58853816986084,-0.027178484946489334,9.807670593261719
1716788104307560295,8.545177843188867e-05,-3.6823512346018106e-05,-1.2196726856927853e-05,3.608004331588745,0.02583305910229683,9.807655334472656
1716788104327551403,7.782984903315082e-05,-2.9814798836014234e-05,-1.1424860531406011e-05,3.6584982872009277,-0.021439241245388985,9.807608604431152
1716788104346342077,6.888555799378082e-05,-2.195355227740947e-05,-1.0910862329183146e-05,3.5080795288085938,0.01923302747309208,9.806483268737793
1716788104368227742,6.315587961580604e-05,-1.5140778486966155e-05,-1.0496915820112918e-05,3.6484549045562744,-0.0165114626288414,9.80573844909668
1716788104386484991,5.429087104857899e-05,-7.572227332275361e-06,-1.0242570169793908e-05,3.408118963241577,0.015753157436847687,9.807812690734863
1716788104408990077,5.053618224337697e-05,-3.054331955354428e-06,-1.0078184459416661e-05,3.5484306812286377,-0.014374383725225925,9.808321952819824
1716788104421521988,4.467098187888041e-05,2.14186979974329e-06,-9.960259376384784e-06,3.428138256072998,0.013788530603051186,9.80592155456543
1716788104440897674,4.162257391726598e-05,7.578486474812962e-06,-9.868123015621677e-06,3.66829776763916,-0.0006644038949161768,9.807597160339355
1716788104457390831,4.663984145736322e-05,1.3025417501921766e-05,-9.837999641604256e-06,4.1885151863098145,-0.019766496494412422,9.80654239654541
1716788104474993454,3.260697121731937e-05,1.4471836038865149e-05,-9.764942660694942e-06,2.768036365509033,0.02059190720319748,9.807717323303223
1716788104498422075,2.999818570970092e-05,2.0861398297711276e-05,-9.75604143604869e-06,3.698296546936035,-0.0006487970240414143,9.80569839477539
1716788104515493364,2.5997363991336897e-05,2.3455682821804658e-05,-9.752537152962759e-06,3.368264675140381,0.0010215762304142118,9.807846069335938
1716788104534888407,2.4509972718078643e-05,2.865978967747651e-05,-9.752600817591883e-06,3.6084346771240234,-0.016219886019825935,9.807652473449707
1716788104553251286,2.2220299797481857e-05,3.0158662411849946e-05,-9.761763067217544e-06,3.4481022357940674,0.0159140732139349,9.807785987854004
1716788104570611675,1.8947293938254006e-05,3.4548400435596704e-05,-9.772526937013026e-06,3.508265972137451,-4.220518167130649e-05,9.807111740112305
1716788104590392802,1.879101910162717e-05,3.8399135519284755e-05,-9.8028822321794e-06,3.608264446258545,0.0006542529445141554,9.807653427124023
1716788104608081715,1.574634552525822e-05,3.944696072721854e-05,-9.817567843128927e-06,3.4283390045166016,-0.010208098217844963,9.809061050415039
1716788104626352142,1.5269077266566455e-05,4.201384581392631e-05,-9.844482519838493e-06,3.4281203746795654,0.011353304609656334,9.807811737060547
1716788104647608984,1.3170065358281136e-05,4.7180397814372554e-05,-9.870904250419699e-06,3.7182469367980957,0.00021762459073215723,9.8069486618042
1716788104665810331,1.093440005206503e-05,4.634817742044106e-05,-9.888379281619564e-06,3.3082573413848877,-0.00515813659876585,9.807291984558105
1716788104685009302,9.76540377450874e-06,4.99063498864416e-05,-9.920836419041734e-06,3.488158941268921,0.00540781719610095,9.805895805358887
1716788104703161849,9.102867807087023e-06,5.051443076808937e-05,-9.948174010787625e-06,3.4282102584838867,-0.0017561361892148852,9.808452606201172
1716788104722324593,7.882983481977135e-06,5.3386105719255283e-05,-9.978541129385121e-06,3.468165397644043,0.002709807828068733,9.80591869354248
1716788104739490283,8.87497026269557e-06,5.3223513532429934e-05,-1.0010162441176362e-05,3.3081817626953125,0.0004702609439846128,9.808549880981445
1716788104757684066,6.51875052426476e-06,5.6091263104462996e-05,-1.0039175322162919e-05,3.528211832046509,-0.004178160801529884,9.807129859924316
1716788104787969574,6.317482984741218e-06,6.025149559718557e-05,-1.0080197171191685e-05,3.6281464099884033,0.0027682024519890547,9.806424140930176
1716788104798475758,4.698589236795669e-06,5.711366975447163e-05,-1.0107215530297253e-05,3.168149709701538,-0.0021824033465236425,9.806805610656738
1716788104818373129,4.866171821049647e-06,5.9795671404572204e-05,-1.0132792340300512e-05,3.528125524520874,0.0020757424645125866,9.807138442993164
1716788104834385849,5.30123497810564e-06,7.093472959240898e-05,-1.0157993528991938e-05,4.0281662940979,-0.0016238207463175058,9.807365417480469
1716788104853026714,3.88987609767355e-06,5.810953734908253e-05,-1.0188717169512529e-05,2.8080687522888184,0.0019998031202703714,9.808979988098145
1716788104872791590,3.151356850139564e-06,6.0985024902038276e-05,-1.0216037480859086e-05,3.4680919647216797,0.000537848100066185,9.807827949523926
1716788104888689086,2.834740826074267e-06,7.382343028439209e-05,-1.0240127267024945e-05,4.008112907409668,0.001300630159676075,9.808642387390137
1716788104911862063,2.881135742427432e-06,6.26526671112515e-05,-1.0268197911500465e-05,2.98806095123291,-0.0011791243450716138,9.807598114013672
1716788104934262021,2.5189599455188727e-06,6.171648419694975e-05,-1.028449787554564e-05,3.2280526161193848,0.0009307630243711174,9.808029174804688
1716788104948946894,1.9403971691644983e-06,6.344755820464343e-05,-1.0300050234945957e-05,3.3080506324768066,-0.0007590918685309589,9.807348251342773
1716788104967136898,3.139182126687956e-06,6.514623237308115e-05,-1.0325781659048516e-05,3.328045606613159,-0.000244732218561694,9.806081771850586
1716788104986343264,6.070254130463582e-07,6.672202289337292e-05,-1.034607703331858e-05,3.328038215637207,-0.0021170680411159992,9.805465698242188
1716788105004490226,2.237729631815455e-06,6.756353832315654e-05,-1.037923175317701e-05,3.348011016845703,0.0008971733623184264,9.80794906616211
1716788105023630824,2.0013476387248375e-06,6.774589564884081e-05,-1.0413006748422049e-05,3.3080086708068848,-0.0013808634830638766,9.806739807128906
1716788105043662500,1.1249472890995094e-06,7.031706627458334e-05,-1.0440287042001728e-05,3.4280004501342773,0.00014292605919763446,9.807892799377441
1716788105060498528,1.6113906440295978e-06,6.761899567209184e-05,-1.0468618711456656e-05,3.207958459854126,0.00042423198465257883,9.806828498840332
1716788105079721156,1.4603901945520192e-06,6.991667760303244e-05,-1.0486199244041927e-05,3.4079718589782715,0.00025580430519767106,9.808544158935547
1716788105098856065,1.9111582787445514e-06,6.93114852765575e-05,-1.0510708307265304e-05,3.3079378604888916,0.0004985243431292474,9.809257507324219
1716788105116741678,8.408238549861835e-09,6.990478141233325e-05,-1.0527703125262633e-05,3.3279306888580322,0.0013253989163786173,9.80924129486084
1716788105136802759,3.204263521183748e-07,7.078328781062737e-05,-1.0551021659921389e-05,3.387910842895508,0.0009955287678167224,9.807327270507812
1716788105152500557,5.663900992658455e-07,8.322615030920133e-05,-1.0566621313046198e-05,3.8679473400115967,-9.565421350998804e-05,9.808197975158691
1716788105174405319,-5.201419384093242e-08,6.881558510940522e-05,-1.0589148587314412e-05,2.867858648300171,0.0007454859442077577,9.807121276855469
1716788105195792424,1.9824260277800931e-07,6.618144834646955e-05,-1.0617353837005794e-05,3.147883176803589,-0.00017747795209288597,9.808150291442871
1716788105211987472,3.992462040969258e-07,6.826969183748588e-05,-1.0640917935234029e-05,3.247868299484253,-0.0007283462909981608,9.806830406188965
1716788105231112789,1.2709178918157704e-06,7.069404819048941e-05,-1.066304412233876e-05,3.2878611087799072,0.0003004762693308294,9.808673858642578
1716788105251711127,8.026378282011137e-07,7.046585233183578e-05,-1.0682894753699657e-05,3.2278366088867188,-0.0003032898239325732,9.807479858398438
1716788105266185889,-1.5977287048940525e-08,7.017351890681311e-05,-1.0709692105592694e-05,3.2278270721435547,0.0006341614644043148,9.807479858398438
1716788105290119838,3.4277320537512423e-07,7.443841604981571e-05,-1.0730623216659296e-05,3.447819232940674,-0.0002675499417819083,9.806066513061523
1716788105308142023,-4.3191869281145046e-07,6.861016299808398e-05,-1.0747759915830102e-05,2.987797260284424,-0.00022512776195071638,9.808300018310547
1716788105321856797,3.2007298500502657e-07,8.445506682619452e-05,-1.0778070645756088e-05,3.9878246784210205,-0.00043952203122898936,9.806282043457031
1716788105342360599,1.3208122027208447e-06,6.759490497643128e-05,-1.0798328730743378e-05,2.627748966217041,0.00020218214194756,9.807337760925293
1716788105359576114,-3.87750588970448e-07,6.656730693066493e-05,-1.0812550499395002e-05,3.147751808166504,0.00014242249017115682,9.80756664276123
1716788105377622692,-9.519506960486979e-08,6.965470674913377e-05,-1.082499966287287e-05,3.1477696895599365,-0.001732481294311583,9.806316375732422
1716788105395907031,1.463298758608289e-06,7.042556535452604e-05,-1.0852633749891538e-05,3.247732400894165,0.0002165402111131698,9.808121681213379
1716788105416710082,-2.9822592750861077e-07,6.99509764672257e-05,-1.087111286324216e-05,3.1477181911468506,0.0010815891437232494,9.808198928833008
1716788105433398918,-9.412028703081887e-07,7.263171573868021e-05,-1.088227054424351e-05,3.26771879196167,-0.0011422536335885525,9.806241035461426
1716788105460453443,6.016800284669443e-07,7.178330997703597e-05,-1.0906781426456291e-05,3.1277015209198,-5.624945697491057e-05,9.807598114013672
1716788105467661885,6.712323852298141e-07,8.337532199220732e-05,-1.0926240065600723e-05,3.787703037261963,0.000672014954034239,9.808351516723633
1716788105488240662,-6.204726901160029e-07,6.817890971433371e-05,-1.0942912012978923e-05,2.587658405303955,-0.0011348972329869866,9.806770324707031
1716788105505633559,-8.646791229693918e-07,6.747802399331704e-05,-1.0965778528770898e-05,3.0076489448547363,-0.0006415524985641241,9.806456565856934
1716788105525034669,6.489187285296794e-07,7.018237374722958e-05,-1.0995472621289082e-05,3.2276554107666016,1.7935937648871914e-05,9.808789253234863
1716788105550782948,9.734043260323233e-07,7.395273860311136e-05,-1.1019877092621755e-05,3.3676323890686035,-0.0002848440199159086,9.808067321777344
1716788105566749129,7.71291183809808e-07,7.998538058018312e-05,-1.1034835551981814e-05,3.3476338386535645,-0.0006430871435441077,9.806833267211914
1716788105584801069,-1.874835788839846e-07,6.410099740605801e-05,-1.105182400351623e-05,2.5475621223449707,0.00034016891731880605,9.808696746826172
1716788105603890661,-9.227737791661639e-07,6.68120410409756e-05,-1.105756928154733e-05,3.1475908756256104,0.0004633695643860847,9.8076171875
1716788105621103037,5.900860173824185e-07,6.847247277619317e-05,-1.1070924301748164e-05,3.1475725173950195,-0.0001617890375200659,9.807624816894531
1716788105639714891,-7.781224553582433e-08,6.95394046488218e-05,-1.1078348506998736e-05,3.0475802421569824,-0.0014843362150713801,9.806449890136719
1716788105657688914,1.5250012666001567e-06,6.887875497341156e-05,-1.1095062291133218e-05,3.067542791366577,-3.058471338590607e-05,9.807693481445312
1716788105681544036,-9.413448083250842e-07,7.343216566368937e-05,-1.1108642866020091e-05,3.287559747695923,-0.0006206789403222501,9.807214736938477
1716788105698720090,5.767246875620913e-07,6.778036913601682e-05,-1.1137894944113214e-05,2.867501735687256,0.00013804940681438893,9.807852745056152
1716788105715919747,-1.69222232671018e-06,6.872360972920433e-05,-1.1142850780743174e-05,3.047511577606201,8.145761967170984e-05,9.807717323303223
1716788105735764563,-3.8263110013758705e-07,7.117906352505088e-05,-1.1173534403496888e-05,3.2074973583221436,-0.000175546359969303,9.807605743408203
1716788105753189242,-1.9900294034869148e-07,6.838141416665167e-05,-1.1190848454134539e-05,2.9074840545654297,-0.0003938680747523904,9.807205200195312
1716788105775685583,-2.02440787688829e-07,6.940399907762185e-05,-1.1203834219486453e-05,3.1474671363830566,0.00015741644892841578,9.808282852172852
1716788105792550090,4.5652041080757044e-07,7.052685396047309e-05,-1.1217823157494422e-05,3.1674630641937256,0.0006719562807120383,9.808267593383789
1716788105814287804,7.22205754755123e-07,7.180074317147955e-05,-1.1233865734538995e-05,3.1274466514587402,-0.000980151118710637,9.807682991027832
1716788105832905805,-1.1135412023577373e-06,6.715628842357546e-05,-1.1252040167164523e-05,2.7674264907836914,-0.0008675404242239892,9.806699752807617
1716788105848516726,-5.640741278511996e-07,6.756332732038572e-05,-1.1274109965597745e-05,3.067409038543701,0.0002882423286791891,9.808359146118164
1716788105866377650,-6.157626444291964e-07,6.84904953232035e-05,-1.1285252185189165e-05,3.027414560317993,-0.00042837587534449995,9.808388710021973
1716788105884869813,-4.297087627946894e-07,6.914795085322112e-05,-1.1300923688395415e-05,3.067380905151367,0.0006021999288350344,9.80774211883545
1716788105904594610,4.753325129058794e-07,7.015347364358604e-05,-1.1317703865643125e-05,3.047389030456543,-0.00022484551300294697,9.808381080627441
1716788105927844833,-4.1929624217118544e-07,6.993381248321384e-05,-1.1324144907121081e-05,3.067356586456299,0.00029151400667615235,9.808375358581543
1716788105943894913,-4.819710852643766e-07,6.745588325429708e-05,-1.1334692317177542e-05,2.907350778579712,-7.52522173570469e-05,9.806617736816406
1716788105967231770,-5.186299745219003e-07,7.033764268271625e-05,-1.1345319762767758e-05,3.1673359870910645,5.35765866516158e-05,9.808310508728027
1716788105987130248,1.0622483159750118e-06,6.672528252238408e-05,-1.1361154065525625e-05,2.827324151992798,-0.0005697405431419611,9.807310104370117
1716788106004569221,-1.4431853969654185e-06,6.693533941870555e-05,-1.1371891559974756e-05,2.9473023414611816,-0.00029309670208022,9.806604385375977
1716788106024419023,7.282144309783689e-08,6.816620589233935e-05,-1.1379115676390938e-05,2.9673116207122803,-0.001028439262881875,9.807214736938477
1716788106043613216,5.782425205325126e-08,6.717230280628428e-05,-1.1391656698833685e-05,2.8672871589660645,-0.0017264500493183732,9.806670188903809
1716788106063264251,9.394159405928804e-08,6.776853842893615e-05,-1.140297081292374e-05,2.9672799110412598,-0.00040342070860788226,9.80784797668457
1716788106082928828,5.153710702643366e-08,6.80763041600585e-05,-1.1421429007896222e-05,2.927260637283325,-0.0014309973921626806,9.807259559631348
1716788106104917255,2.9360355924268333e-08,6.824402225902304e-05,-1.1447804354247637e-05,2.907252311706543,-0.0006956654833629727,9.80727481842041
1716788106121831169,-6.817309667894733e-07,6.506617501145229e-05,-1.1461464964668266e-05,2.8072211742401123,-0.00045494179357774556,9.808603286743164
1716788106142182098,8.936787025959347e-07,6.754270725650713e-05,-1.1489984899526462e-05,3.047224521636963,0.0004082024679519236,9.808429718017578
1716788106158281591,9.429294323126669e-07,7.799795275786892e-05,-1.1503843779792078e-05,3.4472239017486572,-0.00023437336494680494,9.807526588439941
1716788106179138440,9.44252320778105e-08,6.227155972737819e-05,-1.1527281458256766e-05,2.3871679306030273,-1.0911393474088982e-05,9.808287620544434
1716788106199508441,2.5593661234779574e-07,6.259011570364237e-05,-1.154828532889951e-05,2.907179832458496,-0.0010033915750682354,9.807921409606934
1716788106215452805,9.552007895763381e-07,7.296996045624837e-05,-1.156457801698707e-05,3.3071908950805664,-8.519877883372828e-05,9.807635307312012
1716788106237891072,-1.622043214410951e-06,6.0686699725920334e-05,-1.1572130460990593e-05,2.5071310997009277,-0.0006704420666210353,9.807589530944824
1716788106258128867,-1.6875286519280053e-06,6.038665378582664e-05,-1.1570773494895548e-05,2.8471431732177734,-0.00020227833010721952,9.806721687316895
1716788106277584596,-2.1584936860108428e-07,5.870687891729176e-05,-1.1577917575777974e-05,2.8271193504333496,-0.00024838163517415524,9.807992935180664
1716788106298479052,7.207686394394841e-07,6.062621105229482e-05,-1.1588966117415112e-05,2.86712646484375,-0.0007815121207386255,9.807964324951172
1716788106322909036,-2.349518695154984e-07,5.8816800446948037e-05,-1.1607528904278297e-05,2.907102108001709,-0.0003756272199098021,9.807942390441895
1716788106338530917,-2.731374593167857e-07,5.842531027155928e-05,-1.1621780686255079e-05,2.827094316482544,6.561637565027922e-05,9.808624267578125
1716788106356617447,6.442840003728634e-07,5.594493632088415e-05,-1.1638375326583628e-05,2.7870826721191406,-0.0012746312422677875,9.807409286499023
1716788106379835681,-2.899158459968021e-07,5.720684930565767e-05,-1.1655108210106846e-05,2.9670801162719727,-7.994461338967085e-05,9.807907104492188
1716788106396493573,6.163880925669218e-07,5.407205389929004e-05,-1.1670519597828388e-05,2.7470505237579346,-0.00042754929745569825,9.80806827545166
1716788106416502660,-1.1993743100902066e-06,5.40397668373771e-05,-1.168167818832444e-05,2.887052536010742,5.0356684369035065e-05,9.80797004699707
1716788106433750456,-3.1575763159708004e-07,5.198158396524377e-05,-1.1699773494910914e-05,2.767033815383911,-0.0005364006501622498,9.808059692382812
1716788106452641215,5.194708023736894e-07,5.1786839321721345e-05,-1.1723883289960213e-05,2.927034854888916,0.0001437848841305822,9.807947158813477
1716788106472200086,5.239900247033802e-07,5.167089693713933e-05,-1.1746261407097336e-05,2.8670151233673096,-0.00014878733782097697,9.807994842529297
1716788106490508245,-4.138332201364392e-07,4.941122460877523e-05,-1.1757098945963662e-05,2.747008800506592,-0.00011214239930268377,9.80807876586914
1716788106511801546,-4.179542258953006e-07,4.975303090759553e-05,-1.1767264368245378e-05,2.9269983768463135,-0.0001656157837715,9.807958602905273
1716788106531639422,-4.337509551533003e-07,4.705592436948791e-05,-1.1777465260820463e-05,2.7669835090637207,0.00040396148688159883,9.8068208694458
1716788106553739038,-4.999846510145289e-07,4.7047677071532235e-05,-1.1800346328527667e-05,2.866995096206665,-0.00014732684940099716,9.808000564575195
1716788106569044280,3.8945785263422295e-07,4.535737389232963e-05,-1.1825926776509732e-05,2.826962471008301,0.0003871640656143427,9.808660507202148
1716788106586788222,-5.577804245149309e-07,4.3976375309284776e-05,-1.1852008356072474e-05,2.7669646739959717,-0.00021954676776658744,9.807453155517578
1716788106606866272,3.284235106093547e-07,4.4883217924507335e-05,-1.187730140372878e-05,2.826977252960205,-0.001175257028080523,9.807411193847656
1716788106631645060,-1.246547071787063e-06,4.379074016469531e-05,-1.18946509246598e-05,2.8269379138946533,0.00023230806982610375,9.808043479919434
1716788106646045171,-1.5075119108587387e-06,4.141293902648613e-05,-1.1920130418729968e-05,2.7269411087036133,-0.0006226843106560409,9.807488441467285
1716788106665076560,2.5965564987018297e-07,4.10696811741218e-05,-1.1942605851800181e-05,2.7669453620910645,-0.0008431578171439469,9.80746078491211
1716788106687975651,9.076857168111019e-07,4.096057818969712e-05,-1.196042649098672e-05,2.846921682357788,-0.0004998415242880583,9.808037757873535
1716788106703459992,2.620991494950431e-07,4.609786265064031e-05,-1.196871107822517e-05,3.1469361782073975,-0.000434411020250991,9.807829856872559
1716788106723083888,2.1125245552866545e-07,3.567673047655262e-05,-1.1984097909589764e-05,2.286888837814331,-6.993320857873186e-05,9.808424949645996
1716788106740939970,-7.008574129940826e-07,3.596654278226197e-05,-1.1994203305221163e-05,2.786886215209961,0.0006134549039416015,9.80746078491211
1716788106760510051,8.205033168451337e-07,3.6929464840795845e-05,-1.200887345476076e-05,2.746903419494629,-0.0013535249745473266,9.806862831115723
1716788106781874980,1.2441610408586712e-07,3.757399827009067e-05,-1.2023496310575865e-05,2.8468916416168213,0.0004390830872580409,9.808669090270996
1716788106801600146,8.056169349401898e-07,3.5829922126140445e-05,-1.204524414788466e-05,2.6668777465820312,-0.0012237406335771084,9.808173179626465
1716788106817914981,-5.107654033054132e-07,3.425719478400424e-05,-1.2057211279170588e-05,2.7268564701080322,0.0012580360053107142,9.808756828308105
1716788106838930865,8.800792272722902e-08,3.5955512430518866e-05,-1.2094493285985664e-05,2.926868200302124,0.0010935483733192086,9.809245109558105
1716788106856285809,6.805697694289847e-08,3.36847806465812e-05,-1.2127798072469886e-05,2.6468498706817627,-0.0004871978017035872,9.808816909790039
1716788106875002965,4.634934214209352e-08,3.470325100352056e-05,-1.2153317584306933e-05,2.686859130859375,-0.0013325297040864825,9.806915283203125
1716788106895203143,2.687681011082077e-08,3.4210494050057605e-05,-1.2177909411548171e-05,2.8268489837646484,0.0005523011786863208,9.809319496154785
1716788106913433728,-9.483272833676892e-07,3.298982483102009e-05,-1.218906163558131e-05,2.686829090118408,-7.988704601302743e-05,9.808794975280762
1716788106932726423,5.942463303654222e-07,3.328660022816621e-05,-1.2212162801006343e-05,2.7668378353118896,-0.0005205322522670031,9.808740615844727
1716788106952585515,-9.80008394435572e-08,3.2308624213328585e-05,-1.222722767124651e-05,2.746835231781006,-0.0004103693936485797,9.80812931060791
1716788106969263072,5.468956487675314e-07,3.1127012334764004e-05,-1.2254718058102299e-05,2.5668342113494873,-0.0012938185827806592,9.807002067565918
1716788106988665712,-1.0638239018589957e-06,3.207971894880757e-05,-1.2268053978914395e-05,2.846816301345825,-0.0003347562742419541,9.808692932128906
1716788107007312497,4.959911166224629e-07,3.0404944482143037e-05,-1.2284578588150907e-05,2.6268115043640137,-0.0009979961905628443,9.808218002319336
1716788107024812873,-1.919063095101592e-07,3.072823164984584e-05,-1.2293240615690593e-05,2.7268028259277344,0.0003261532401666045,9.807524681091309
1716788107045331198,-4.564382720673166e-07,3.096373984590173e-05,-1.2318061635596678e-05,2.8268144130706787,-0.0002246042713522911,9.808706283569336
1716788107074965706,4.479698247905617e-07,3.1592669984092936e-05,-1.2345850336714648e-05,2.8467869758605957,0.00013709813356399536,9.808387756347656
1716788107091416011,-2.583165041869506e-07,2.9220074793556705e-05,-1.2351864825177472e-05,2.6667768955230713,0.0001908145350171253,9.808197021484375
1716788107118427413,-2.8670262963714777e-07,3.101350012002513e-05,-1.2364943358988967e-05,2.8667919635772705,-0.00028551628929562867,9.808061599731445
1716788107152245132,-3.446231460202398e-07,2.8098816983401775e-05,-1.238718868989963e-05,2.6067631244659424,-0.0008823149837553501,9.807305335998535
1716788107170571466,-3.731314848209877e-07,2.8258715246920474e-05,-1.2413764125085436e-05,2.7067649364471436,-0.0004954037140123546,9.807863235473633
1716788107198545700,-4.0309063820131996e-07,2.8293537980061956e-05,-1.2441112630767748e-05,2.726769208908081,-0.0008398729842156172,9.807538032531738
1716788107222410328,-4.365567463082698e-07,2.5917332095559686e-05,-1.2465166946640238e-05,2.5467376708984375,-0.000705557526089251,9.80766487121582
1716788107238809938,-4.5365990786194743e-07,2.612924072309397e-05,-1.2487247659009881e-05,2.5667338371276855,-0.000190678532817401,9.808276176452637
1716788107259192282,4.068191117312381e-07,2.609553666843567e-05,-1.2525281817943323e-05,2.746739387512207,0.00022471541888080537,9.8087797164917
1716788107274738388,-5.418281148195092e-07,3.0552109819836915e-05,-1.2551023246487603e-05,3.0867624282836914,-0.0003968329110648483,9.807926177978516
1716788107292965599,-5.458772420752211e-07,2.4272296286653727e-05,-1.2569554201036226e-05,2.086697816848755,-0.0008285597432404757,9.809852600097656
1716788107311340229,8.148855101808294e-08,2.4899902200559154e-05,-1.2590487131092232e-05,2.606717348098755,-0.00025322622968815267,9.807629585266113
1716788107329579243,-6.531294047817937e-07,2.5512357751722448e-05,-1.2615168088814244e-05,2.726722002029419,2.3766380763845518e-05,9.809423446655273
1716788107351776293,2.566715124885377e-07,2.7075251637143083e-05,-1.2642355613934342e-05,2.8067262172698975,-0.00010405687498860061,9.8074951171875
1716788107373737127,2.0483660989611963e-07,2.5960433049476705e-05,-1.267068182642106e-05,2.6266956329345703,-4.812480983673595e-05,9.808245658874512
1716788107388635755,-6.573194610837163e-08,2.538493208703585e-05,-1.269739368581213e-05,2.56669282913208,-3.0444760341197252e-05,9.808910369873047
1716788107407860946,5.966792855360836e-07,2.5844799893093295e-05,-1.2729925401799846e-05,2.726703405380249,-0.0002859166997950524,9.808178901672363
1716788107425669459,8.522288226231467e-07,2.502996358089149e-05,-1.275290924240835e-05,2.566701889038086,-0.0009678942151367664,9.8082857131958
1716788107445494096,1.6499056698648928e-07,2.5569108402123675e-05,-1.2771811270795297e-05,2.7466952800750732,0.0006977216107770801,9.809415817260742
1716788107463945707,8.076955850810918e-07,2.516073982405942e-05,-1.2797614544979297e-05,2.6066770553588867,-0.000403993995860219,9.809515953063965
1716788107485327700,-1.3350611993701023e-07,2.5522544092382304e-05,-1.281128243135754e-05,2.72668194770813,-0.0004392279079183936,9.80693531036377
1716788107502944215,4.882074904344336e-07,2.439234776829835e-05,-1.281934692087816e-05,2.526670455932617,-0.00027633990976028144,9.807693481445312
1716788107522914669,-2.435996293570497e-07,2.4640861738589592e-05,-1.2817994502256624e-05,2.6866793632507324,-0.0003754039644263685,9.807587623596191
1716788107541196080,-9.353526593258721e-07,2.4137490981956944e-05,-1.2836924724979326e-05,2.606654644012451,-8.901242108549923e-05,9.808895111083984
1716788107559275061,-2.9534479750736864e-08,2.4016026145545766e-05,-1.2862628864240833e-05,2.5666637420654297,-0.001275165006518364,9.807672500610352
1716788107577593480,-3.59862539767164e-08,2.457881964801345e-05,-1.2875489119323902e-05,2.566662311553955,-0.0011189230717718601,9.807672500610352
1716788107595559808,-9.681622259449796e-07,2.4183495042962022e-05,-1.288936982746236e-05,2.6466541290283203,0.00015969043306540698,9.808868408203125
1716788107617893844,3.488410413865495e-07,2.5516210371279158e-05,-1.2927590432809666e-05,2.7466533184051514,-0.0011684659402817488,9.807558059692383
1716788107635575767,-1.0731609734193626e-07,2.3040800442686304e-05,-1.294994399358984e-05,2.486625909805298,0.00026142181013710797,9.808354377746582
1716788107654765918,-3.63239735179377e-07,2.392900387349073e-05,-1.298223651247099e-05,2.686628580093384,0.0010364101035520434,9.808846473693848
1716788107671965625,2.555896685407788e-07,2.331044561287854e-05,-1.3000088983972091e-05,2.566640853881836,-0.0008035126957111061,9.80830192565918
1716788107688184135,-2.242193204438081e-07,2.8116857720306143e-05,-1.3001089428144041e-05,3.1666743755340576,-0.0011346526443958282,9.807279586791992
1716788107707551634,2.0696883495929796e-07,2.2572667148779146e-05,-1.3019250218349043e-05,2.126587390899658,0.00021243374794721603,9.809222221374512
1716788107731190998,-5.262148192741734e-07,2.269933065690566e-05,-1.3021322956774384e-05,2.6066160202026367,-0.00023945806606207043,9.808280944824219
1716788107749597968,-5.656219741467794e-07,2.3671200324315578e-05,-1.302740474784514e-05,2.646622657775879,-0.0007718829438090324,9.80700397491455
1716788107768382191,-6.377438239724142e-07,2.2597545466851443e-05,-1.3039700206718408e-05,2.50661301612854,-0.0004708166525233537,9.807722091674805
1716788107785613569,2.3440422580733866e-07,2.2620994059252553e-05,-1.3055987437837757e-05,2.486612319946289,-0.0005170872318558395,9.807735443115234
1716788107804464971,8.54599363719899e-07,2.3197093469207175e-05,-1.3084859347145539e-05,2.726588487625122,0.0009796784725040197,9.809457778930664
1716788107821169045,1.0726033679020475e-06,2.2639382223132998e-05,-1.3102667253406253e-05,2.5265889167785645,-0.00010832998668774962,9.808963775634766
1716788107841547193,-1.0396565386372458e-07,2.3587797841173597e-05,-1.3124385077389888e-05,2.766592502593994,0.0007598008378408849,9.808806419372559
1716788107864029601,7.690134111726366e-07,2.3129538021748886e-05,-1.3142542229616083e-05,2.5665903091430664,-0.0001719624560791999,9.807063102722168
1716788107880685461,1.077440003882657e-07,2.3162507204688154e-05,-1.3165696145733818e-05,2.666595458984375,-9.668901475379243e-05,9.808247566223145
1716788107897337454,-8.180780923794373e-07,2.2174463083501905e-05,-1.3188588127377443e-05,2.4465670585632324,-0.00044725192128680646,9.80839729309082
1716788107915258147,8.207054946751668e-08,2.269531432830263e-05,-1.321178388025146e-05,2.6465725898742676,1.599963434273377e-05,9.808890342712402
1716788107934238293,-8.608582788838248e-07,2.2179681764100678e-05,-1.3216510524216574e-05,2.606571912765503,-0.00023289199452847242,9.807042121887207
1716788107951571016,6.98754490713327e-07,2.260907604068052e-05,-1.3236518498160876e-05,2.4465765953063965,-0.0013847029767930508,9.80839729309082
1716788107969640123,-1.9910869397676834e-08,2.214898449892644e-05,-1.325110952166142e-05,2.5665745735168457,-0.000638026453088969,9.807693481445312
1716788107992142245,-1.7144015984627003e-08,2.2855379938846454e-05,-1.3267519534565508e-05,2.7065534591674805,0.00015796242223586887,9.808856964111328
1716788108007456050,-9.520669550511229e-07,2.2255248040892184e-05,-1.3282246072776616e-05,2.446542739868164,-0.00013205672439653426,9.808402061462402
1716788108026136327,6.044515430403408e-07,2.2290290871751495e-05,-1.3303915693541057e-05,2.566551923751831,-0.0004789464292116463,9.807699203491211
1716788108047978431,-1.2404687765865674e-07,2.2024260033504106e-05,-1.3321297956281342e-05,2.5665476322174072,-1.0220712283626199e-05,9.808323860168457
1716788108062979607,-1.0526043752179248e-06,2.2557436750503257e-05,-1.3343282262212597e-05,2.566551446914673,-0.0004789466329384595,9.807073593139648
1716788108084517216,-1.1672783557514776e-06,2.2903956050868146e-05,-1.3371633940550964e-05,2.6465325355529785,2.2805234038969502e-05,9.808277130126953
1716788108101382315,1.2580576367327012e-06,2.1719173673773184e-05,-1.3394955203693826e-05,2.366523265838623,-0.000470251397928223,9.808459281921387
1716788108121091925,-3.1402163358507096e-07,2.2032010747352615e-05,-1.3404773198999465e-05,2.606531858444214,-6.995175499469042e-05,9.808927536010742
1716788108143058291,-3.259141010403255e-07,2.308816692675464e-05,-1.3426591976894997e-05,2.6865456104278564,-0.0011343726655468345,9.807000160217285
1716788108161854309,1.2103838571420056e-06,2.1850304619874805e-05,-1.3453794963425025e-05,2.326512575149536,-0.0014978277031332254,9.807865142822266
1716788108180570361,-1.2525439387900406e-06,2.1509345970116556e-05,-1.3471475540427491e-05,2.4865081310272217,-0.00018917641136795282,9.808385848999023
1716788108199633294,1.188457304124313e-06,2.154120556951966e-05,-1.348987552773906e-05,2.5265114307403564,-0.0002526215394027531,9.809610366821289
1716788108214552801,-1.3557297506849864e-06,2.6010422516264953e-05,-1.3494242921296973e-05,3.0865354537963867,0.00010912197467405349,9.807995796203613
1716788108233948894,1.092262664315058e-06,2.032518750638701e-05,-1.3511315955838654e-05,2.086484432220459,0.00013276180834509432,9.809270858764648
1716788108260005017,-7.199412266345462e-07,2.102664984704461e-05,-1.3525433132599574e-05,2.5864970684051514,-0.0005794700118713081,9.80832576751709
1716788108274255696,1.0277180990669876e-06,2.0935447537340224e-05,-1.3543086424760986e-05,2.4864823818206787,0.00043835947872139513,9.809015274047852
1716788108293218568,9.533814449014244e-08,2.138631862180773e-05,-1.3552459677157458e-05,2.48649525642395,-0.0009678175556473434,9.807140350341797
1716788108311429936,-8.264847792815999e-07,2.118902739312034e-05,-1.3567133464675862e-05,2.4864823818206787,0.00043835947872139513,9.809015274047852
1716788108328326763,-8.773488389124395e-07,2.0935287466272712e-05,-1.3589115042123012e-05,2.486499309539795,-0.001280300784856081,9.808390617370605
1716788108348018531,9.497510973233148e-07,2.198343281634152e-05,-1.3605949789052829e-05,2.64646577835083,0.0009688542340882123,9.808292388916016
1716788108364261619,-6.713329980811977e-07,2.5297120373579673e-05,-1.3619923265650868e-05,2.9265007972717285,-0.0010370640084147453,9.808735847473145
